File: LSTM/50um/1079714-2/Ambient Pressure Run 2/G21-9800-CV-01 Plot-cv data-240624 192311.DTA
EXPLAIN
TAG	CV
TITLE	LABEL	Cyclic Voltammetry	Test &Identifier
DATE	LABEL	2024-06-24	Date
TIME	LABEL	7:23:11 PM	Time
NOTES	NOTES	1	&Notes...
	GI-CV	FCATS v19.0.1f5
PSTAT	PSTAT	REF3000-42167	Potentiostat
VINIT	POTEN	1.350000E+0	F	Initial &E (V)
VLIMIT1	POTEN	1.350000E+0	F	Scan Limit &1 (V)
VLIMIT2	POTEN	5.000000E-2	F	Scan Limit &2 (V)
VFINAL	POTEN	1.350000E+0	F	Final &E (V)
SCANRATE	QUANT	5.000000E-2	&Scan Rate (V/s)
STEPSIZE	QUANT	2	St&ep Size (V)
CYCLES	IQUANT	3	C&ycles (#)
IMODE	SELECTOR	1	I/E Range &Mode
IRANGE	QUANT	NaN	&Max Current (mA)
AREA	QUANT	5.000000E+1	Electrode &Area (cm^2)
ELECTRODETYPE	SELECTOR	0	Electrode Type
STRIPPING	TOGGLE	F	Used for Stripping
POLARITY	TOGGLE	F	Signal Polarity
CONDIT	TWOPARAM	F	0.00000E+000	0.00000E+000	Conditionin&g	Time(s)	E(V)
DELAY	TWOPARAM	0	0.000000E+0	0.00000E+000	Init. De&lay	Time(s)	Stab.(mV/s)
EQDELAY	QUANT	0.000000E+0	Equil. &Time (s)
IRCOMP	SELECTOR	0	IRCom&p
PFCOR	QUANT	0.00000E+000	PF Corr. (ohm)
SAMPLINGMODE	SELECTOR	Surface	Sampling &Mode
EOC	QUANT	0	Open Circuit (V)
PSTATMODEL	IQUANT	6.000000E+0	Pstat Model
PSTATSECTION	LABEL	REF3000-42167	Pstat Section
PSTATSERIALNO	LABEL	42167	Pstat Serial Number
CTRLMODE	IQUANT	0	Control Mode
IESTAB	IQUANT	2	I/E Stability
CASPEED	IQUANT	2	Control Amp Speed
CONVENTION	IQUANT	1	Current Convention
ICHRANGE	IQUANT	2	Ich Range
ICHRANGEMODE	TOGGLE	F	Ich Auto Range
ICHOFFSETENABLE	TOGGLE	F	Ich Offset Enable
ICHOFFSET	QUANT	0	Ich Offset (V)
ICHFILTER	IQUANT	3	Ich Filter
VCHRANGE	IQUANT	2	Vch Range
VCHRANGEMODE	TOGGLE	F	Vch Auto Range
VCHOFFSETENABLE	TOGGLE	F	Vch Offset Enable
VCHOFFSET	QUANT	0	Vch Offset (V)
VCHFILTER	IQUANT	3	Vch Filter
ACHRANGE	IQUANT	2	Ach Range
ACHOFFSETENABLE	TOGGLE	F	Ach Offset Enable
ACHOFFSET	QUANT	0	Ach Offset (V)
ACHFILTER	IQUANT	1	Ach Filter
IERANGELOWERLIMIT	IQUANT	2	I/E Range Lower Limit
IERANGEMODE	TOGGLE	F	I/E AutoRange
IERANGE	IQUANT	9	I/E Range
POSFEEDENABLE	TOGGLE	F	Positive Feedback IR Comp
POSFEEDRESISTANCE	QUANT	0	Positive Feedback Resistance (ohm)
ACHSELECT	IQUANT	0	Ach Select
CABLEID	IQUANT	14	Cable ID
DCCALDATE	LABEL	N/A	DC Calibration Date
ACCALDATE	LABEL	N/A	AC Calibration Date
THERMOSELECT	IQUANT	1	Thermo Select
FRAMEWORKVERSION	QUANT	7.8.2.7430	Framework Version
INSTRUMENTVERSION	LABEL	2.31	Instrument Version
COMPLIANCEVOLTAGE	IQUANT	0	Compliance Voltage
CURVE1	TABLE
	Pt	T	Vf	Im	Vu	Sig	Ach	IERange	Over	Cycle
	#	s	V vs. Ref.	A	V	V	V	#	bits	#
	0	0.100000	1.349814	0.061731	0.000000	1.350000	0.001708	13	.......	0
	3	0.400000	1.334842	-0.901089	0.000000	1.335000	0.000619	13	.......	0
	6	0.700000	1.319885	-0.942926	0.000000	1.320000	0.000618	13	.......	0
	9	1.000000	1.304945	-0.973804	0.000000	1.305000	0.000622	13	.......	0
	12	1.300000	1.289912	-0.981855	0.000000	1.290000	0.000621	13	.......	0
	15	1.600000	1.274881	-0.977699	0.000000	1.275000	0.000615	13	.......	0
	18	1.900000	1.259900	-0.973910	0.000000	1.260000	0.000615	13	.......	0
	21	2.200000	1.244881	-0.952678	0.000000	1.245000	0.000619	13	.......	0
	24	2.500000	1.229883	-0.939423	0.000000	1.230000	0.000619	13	.......	0
	27	2.800000	1.214903	-0.907432	0.000000	1.215000	0.000614	13	.......	0
	30	3.100000	1.199911	-0.944141	0.000000	1.200000	0.000619	13	.......	0
	33	3.400000	1.184917	-0.911382	0.000000	1.185000	0.000619	13	.......	0
	36	3.700000	1.169825	-0.922753	0.000000	1.170000	0.000614	13	.......	0
	39	4.000000	1.154843	-0.928593	0.000000	1.155000	0.000616	13	.......	0
	42	4.300000	1.139880	-0.917542	0.000000	1.140000	0.000618	13	.......	0
	45	4.600000	1.124905	-0.891448	0.000000	1.125000	0.000615	13	.......	0
	48	4.900000	1.109917	-0.915408	0.000000	1.110000	0.000616	13	.......	0
	51	5.200000	1.094951	-0.893108	0.000000	1.095000	0.000617	13	.......	0
	54	5.500000	1.079913	-0.936202	0.000000	1.080000	0.000617	13	.......	0
	57	5.800000	1.064888	-0.907340	0.000000	1.065000	0.000618	13	.......	0
	60	6.100000	1.049867	-0.904235	0.000000	1.050000	0.000620	13	.......	0
	63	6.400000	1.034890	-0.910165	0.000000	1.035000	0.000616	13	.......	0
	66	6.700000	1.019911	-0.884501	0.000000	1.020000	0.000615	13	.......	0
	69	7.000000	1.004884	-0.916372	0.000000	1.005000	0.000619	13	.......	0
	72	7.300000	0.989897	-0.895371	0.000000	0.990000	0.000615	13	.......	0
	75	7.600000	0.974936	-0.908841	0.000000	0.975000	0.000613	13	.......	0
	78	7.900000	0.959890	-0.898748	0.000000	0.960000	0.000616	13	.......	0
	81	8.200000	0.944916	-0.895331	0.000000	0.945000	0.000619	13	.......	0
	84	8.500000	0.929886	-0.900202	0.000000	0.930000	0.000617	13	.......	0
	87	8.800000	0.914946	-0.906879	0.000000	0.915000	0.000621	13	.......	0
	90	9.100000	0.899934	-0.924239	0.000000	0.900000	0.000623	13	.......	0
	93	9.400001	0.884917	-0.917848	0.000000	0.885000	0.000619	13	.......	0
	96	9.700000	0.869902	-0.940584	0.000000	0.870000	0.000616	13	.......	0
	99	10	0.854939	-0.946484	0.000000	0.855000	0.000616	13	.......	0
	102	10.3	0.839955	-0.952108	0.000000	0.840000	0.000611	13	.......	0
	105	10.6	0.824948	-0.945018	0.000000	0.825000	0.000616	13	.......	0
	108	10.9	0.809861	-0.966351	0.000000	0.810000	0.000614	13	.......	0
	111	11.2	0.794901	-0.974623	0.000000	0.795000	0.000614	13	.......	0
	114	11.5	0.779936	-0.978913	0.000000	0.780000	0.000614	13	.......	0
	117	11.8	0.764879	-0.978965	0.000000	0.765000	0.000617	13	.......	0
	120	12.1	0.749899	-1.001657	0.000000	0.750000	0.000611	13	.......	0
	123	12.4	0.734957	-0.999311	0.000000	0.735000	0.000614	13	.......	0
	126	12.7	0.719908	-0.970638	0.000000	0.720000	0.000616	13	.......	0
	129	13	0.704960	-0.983584	0.000000	0.705000	0.000615	13	.......	0
	132	13.3	0.689932	-0.962145	0.000000	0.690000	0.000609	13	.......	0
	135	13.6	0.674964	-0.964543	0.000000	0.675000	0.000615	13	.......	0
	138	13.9	0.659909	-0.964113	0.000000	0.660000	0.000617	13	.......	0
	141	14.2	0.644901	-0.938579	0.000000	0.645000	0.000618	13	.......	0
	144	14.5	0.629893	-0.906246	0.000000	0.630000	0.000614	13	.......	0
	147	14.8	0.614930	-0.908281	0.000000	0.615000	0.000617	13	.......	0
	150	15.1	0.599930	-0.907659	0.000000	0.600000	0.000612	13	.......	0
	153	15.4	0.584980	-0.875212	0.000000	0.585000	0.000615	13	.......	0
	156	15.7	0.569932	-0.876221	0.000000	0.570000	0.000615	13	.......	0
	159	16	0.554914	-0.858025	0.000000	0.555000	0.000612	13	.......	0
	162	16.3	0.539914	-0.832936	0.000000	0.540000	0.000614	13	.......	0
	165	16.6	0.524922	-0.830434	0.000000	0.525000	0.000619	13	.......	0
	168	16.9	0.509927	-0.843548	0.000000	0.510000	0.000614	13	.......	0
	171	17.2	0.495002	-0.853249	0.000000	0.495000	0.000613	13	.......	0
	174	17.5	0.479976	-0.875303	0.000000	0.480000	0.000615	13	.......	0
	177	17.8	0.465012	-0.874136	0.000000	0.465000	0.000615	13	.......	0
	180	18.1	0.449893	-0.921940	0.000000	0.450000	0.000616	13	.......	0
	183	18.4	0.435020	-0.955665	0.000000	0.435000	0.000615	13	.......	0
	186	18.7	0.419967	-0.980048	0.000000	0.420000	0.000616	13	.......	0
	189	19	0.404946	-1.031382	0.000000	0.405000	0.000614	13	.......	0
	192	19.3	0.389942	-1.100640	0.000000	0.390000	0.000613	13	.......	0
	195	19.6	0.375050	-1.181636	0.000000	0.375000	0.000615	13	.......	0
	198	19.9	0.359960	-1.285588	0.000000	0.360000	0.000614	13	.......	0
	201	20.2	0.344988	-1.399992	0.000000	0.345000	0.000614	13	.......	0
	204	20.5	0.329970	-1.514665	0.000000	0.330000	0.000615	13	.......	0
	207	20.8	0.315013	-1.651372	0.000000	0.315000	0.000612	13	.......	0
	210	21.1	0.300042	-1.825874	0.000000	0.300000	0.000616	13	.......	0
	213	21.4	0.285015	-1.968616	0.000000	0.285000	0.000618	13	.......	0
	216	21.7	0.270003	-2.121973	0.000000	0.270000	0.000612	13	.......	0
	219	22	0.255070	-2.271799	0.000000	0.255000	0.000613	13	.......	0
	222	22.3	0.240022	-2.403293	0.000000	0.240000	0.000619	13	.......	0
	225	22.6	0.225052	-2.517055	0.000000	0.225000	0.000615	13	.......	0
	228	22.9	0.210057	-2.624413	0.000000	0.210000	0.000611	13	.......	0
	231	23.2	0.195073	-2.712566	0.000000	0.195000	0.000617	13	.......	0
	234	23.5	0.180052	-2.780360	0.000000	0.180000	0.000618	13	.......	0
	237	23.8	0.165084	-2.868139	0.000000	0.165000	0.000615	13	.......	0
	240	24.1	0.150025	-2.918406	0.000000	0.150000	0.000613	13	.......	0
	243	24.4	0.135067	-2.956593	0.000000	0.135000	0.000613	13	.......	0
	246	24.7	0.120059	-2.999521	0.000000	0.120000	0.000614	13	.......	0
	249	25	0.105066	-3.047557	0.000000	0.105000	0.000608	13	.......	0
	252	25.3	0.090098	-3.057634	0.000000	0.090000	0.000614	13	.......	0
	255	25.6	0.075133	-3.088513	0.000000	0.075000	0.000612	13	.......	0
	258	25.9	0.060155	-3.130124	0.000000	0.060000	0.000614	13	.......	0
	261	26.2	0.055062	-1.716389	0.000000	0.055000	0.000612	13	.......	0
	264	26.5	0.069988	-0.580805	0.000000	0.070000	0.000614	13	.......	0
	267	26.8	0.084964	-0.091434	0.000000	0.085000	0.000614	13	.......	0
	270	27.1	0.099942	0.198556	0.000000	0.100000	0.000616	13	.......	0
	273	27.4	0.114919	0.339917	0.000000	0.115000	0.000617	13	.......	0
	276	27.7	0.129853	0.476265	0.000000	0.130000	0.000612	13	.......	0
	279	28	0.144892	0.527651	0.000000	0.145000	0.000617	13	.......	0
	282	28.3	0.159898	0.596891	0.000000	0.160000	0.000616	13	.......	0
	285	28.6	0.174979	0.611860	0.000000	0.175000	0.000610	13	.......	0
	288	28.9	0.189883	0.625932	0.000000	0.190000	0.000610	13	.......	0
	291	29.2	0.204873	0.535147	0.000000	0.205000	0.000619	13	.......	0
	294	29.5	0.219896	0.425851	0.000000	0.220000	0.000615	13	.......	0
	297	29.8	0.234894	0.348030	0.000000	0.235000	0.000611	13	.......	0
	300	30.1	0.249852	0.311027	0.000000	0.250000	0.000615	13	.......	0
	303	30.4	0.264938	0.285960	0.000000	0.265000	0.000613	13	.......	0
	306	30.7	0.279915	0.297929	0.000000	0.280000	0.000617	13	.......	0
	309	31	0.294941	0.298415	0.000000	0.295000	0.000615	13	.......	0
	312	31.3	0.309852	0.315519	0.000000	0.310000	0.000613	13	.......	0
	315	31.6	0.324854	0.332398	0.000000	0.325000	0.000613	13	.......	0
	318	31.9	0.339856	0.372218	0.000000	0.340000	0.000618	13	.......	0
	321	32.2	0.354861	0.417292	0.000000	0.355000	0.000615	13	.......	0
	324	32.5	0.369892	0.455282	0.000000	0.370000	0.000610	13	.......	0
	327	32.8	0.384885	0.481334	0.000000	0.385000	0.000620	13	.......	0
	330	33.1	0.399854	0.521127	0.000000	0.400000	0.000616	13	.......	0
	333	33.4	0.414911	0.543642	0.000000	0.415000	0.000614	13	.......	0
	336	33.7	0.429856	0.600586	0.000000	0.430000	0.000612	13	.......	0
	339	34	0.444858	0.621998	0.000000	0.445000	0.000617	13	.......	0
	342	34.3	0.459870	0.659781	0.000000	0.460000	0.000611	13	.......	0
	345	34.6	0.474918	0.684554	0.000000	0.475000	0.000612	13	.......	0
	348	34.9	0.489860	0.736637	0.000000	0.490000	0.000614	13	.......	0
	351	35.2	0.504896	0.763124	0.000000	0.505000	0.000614	13	.......	0
	354	35.5	0.519838	0.789126	0.000000	0.520000	0.000612	13	.......	0
	357	35.8	0.534858	0.843414	0.000000	0.535000	0.000615	13	.......	0
	360	36.1	0.549828	0.889033	0.000000	0.550000	0.000608	13	.......	0
	363	36.4	0.564819	0.948959	0.000000	0.565000	0.000611	13	.......	0
	366	36.7	0.579848	0.972450	0.000000	0.580000	0.000616	13	.......	0
	369	37	0.594815	1.032695	0.000000	0.595000	0.000614	13	.......	0
	372	37.3	0.609797	1.073214	0.000000	0.610000	0.000615	13	.......	0
	375	37.6	0.624817	1.127167	0.000000	0.625000	0.000615	13	.......	0
	378	37.9	0.639835	1.193788	0.000000	0.640000	0.000619	13	.......	0
	381	38.2	0.654765	1.223633	0.000000	0.655000	0.000614	13	.......	0
	384	38.5	0.669827	1.272971	0.000000	0.670000	0.000613	13	.......	0
	387	38.8	0.684811	1.324842	0.000000	0.685000	0.000619	13	.......	0
	390	39.1	0.699841	1.367827	0.000000	0.700000	0.000612	13	.......	0
	393	39.4	0.714833	1.419345	0.000000	0.715000	0.000613	13	.......	0
	396	39.7	0.729784	1.432794	0.000000	0.730000	0.000618	13	.......	0
	399	40	0.744767	1.452909	0.000000	0.745000	0.000618	13	.......	0
	402	40.3	0.759803	1.503769	0.000000	0.760000	0.000616	13	.......	0
	405	40.6	0.774821	1.511923	0.000000	0.775000	0.000620	13	.......	0
	408	40.9	0.789812	1.530796	0.000000	0.790000	0.000616	13	.......	0
	411	41.2	0.804796	1.510040	0.000000	0.805000	0.000615	13	.......	0
	414	41.5	0.819816	1.513140	0.000000	0.820000	0.000617	13	.......	0
	417	41.8	0.834803	1.521376	0.000000	0.835000	0.000615	13	.......	0
	420	42.1	0.849790	1.535334	0.000000	0.850000	0.000615	13	.......	0
	423	42.4	0.864793	1.496334	0.000000	0.865000	0.000618	13	.......	0
	426	42.7	0.879842	1.531166	0.000000	0.880000	0.000616	13	.......	0
	429	43	0.894873	1.528076	0.000000	0.895000	0.000616	13	.......	0
	432	43.3	0.909809	1.501049	0.000000	0.910000	0.000614	13	.......	0
	435	43.6	0.924748	1.504123	0.000000	0.925000	0.000621	13	.......	0
	438	43.9	0.939820	1.492164	0.000000	0.940000	0.000616	13	.......	0
	441	44.2	0.954735	1.492973	0.000000	0.955000	0.000615	13	.......	0
	444	44.5	0.969724	1.490767	0.000000	0.970000	0.000618	13	.......	0
	447	44.8	0.984795	1.498676	0.000000	0.985000	0.000611	13	.......	0
	450	45.1	0.999785	1.509103	0.000000	1.000000	0.000612	13	.......	0
	453	45.4	1.014746	1.531015	0.000000	1.015000	0.000615	13	.......	0
	456	45.7	1.029785	1.517792	0.000000	1.030000	0.000613	13	.......	0
	459	46	1.044769	1.572484	0.000000	1.045000	0.000613	13	.......	0
	462	46.3	1.059779	1.592564	0.000000	1.060000	0.000611	13	.......	0
	465	46.6	1.074716	1.611086	0.000000	1.075000	0.000610	13	.......	0
	468	46.9	1.089731	1.657243	0.000000	1.090000	0.000611	13	.......	0
	471	47.2	1.104752	1.700155	0.000000	1.105000	0.000617	13	.......	0
	474	47.5	1.119809	1.734440	0.000000	1.120000	0.000615	13	.......	0
	477	47.8	1.134748	1.751323	0.000000	1.135000	0.000612	13	.......	0
	480	48.1	1.149770	1.800297	0.000000	1.150000	0.000617	13	.......	0
	483	48.4	1.164717	1.826354	0.000000	1.165000	0.000615	13	.......	0
	486	48.7	1.179801	1.865214	0.000000	1.180000	0.000613	13	.......	0
	489	49	1.194728	1.864734	0.000000	1.195000	0.000611	13	.......	0
	492	49.3	1.209743	1.912529	0.000000	1.210000	0.000614	13	.......	0
	495	49.6	1.224736	1.956291	0.000000	1.225000	0.000613	13	.......	0
	498	49.9	1.239775	1.973417	0.000000	1.240000	0.000612	13	.......	0
	501	50.2	1.254705	1.995827	0.000000	1.255000	0.000618	13	.......	0
	504	50.5	1.269752	2.039798	0.000000	1.270000	0.000613	13	.......	0
	507	50.8	1.284764	2.075932	0.000000	1.285000	0.000615	13	.......	0
	510	51.1	1.299813	2.133419	0.000000	1.300000	0.000617	13	.......	0
	513	51.4	1.314726	2.190578	0.000000	1.315000	0.000614	13	.......	0
	516	51.7	1.329715	2.204288	0.000000	1.330000	0.000613	13	.......	0
	519	52	1.344647	2.302755	0.000000	1.345000	0.000614	13	.......	0
	522	52.3	1.339842	0.094983	0.000000	1.340000	0.000611	13	.......	1
	525	52.6	1.324843	-0.416146	0.000000	1.325000	0.000620	13	.......	1
	528	52.9	1.309888	-0.620628	0.000000	1.310000	0.000613	13	.......	1
	531	53.2	1.294933	-0.725133	0.000000	1.295000	0.000610	13	.......	1
	534	53.5	1.279896	-0.787202	0.000000	1.280000	0.000614	13	.......	1
	537	53.8	1.264889	-0.809892	0.000000	1.265000	0.000612	13	.......	1
	540	54.1	1.249880	-0.816890	0.000000	1.250000	0.000606	13	.......	1
	543	54.4	1.234877	-0.827489	0.000000	1.235000	0.000613	13	.......	1
	546	54.7	1.219897	-0.827691	0.000000	1.220000	0.000615	13	.......	1
	549	55	1.204853	-0.868436	0.000000	1.205000	0.000616	13	.......	1
	552	55.3	1.189910	-0.854177	0.000000	1.190000	0.000610	13	.......	1
	555	55.6	1.174863	-0.878750	0.000000	1.175000	0.000614	13	.......	1
	558	55.9	1.159883	-0.864697	0.000000	1.160000	0.000611	13	.......	1
	561	56.2	1.144904	-0.866841	0.000000	1.145000	0.000612	13	.......	1
	564	56.5	1.129869	-0.858495	0.000000	1.130000	0.000615	13	.......	1
	567	56.8	1.114866	-0.860385	0.000000	1.115000	0.000607	13	.......	1
	570	57.1	1.099921	-0.859016	0.000000	1.100000	0.000608	13	.......	1
	573	57.4	1.084903	-0.854932	0.000000	1.085000	0.000613	13	.......	1
	576	57.7	1.069878	-0.840707	0.000000	1.070000	0.000609	13	.......	1
	579	58	1.054875	-0.856400	0.000000	1.055000	0.000608	13	.......	1
	582	58.3	1.039906	-0.853500	0.000000	1.040000	0.000612	13	.......	1
	585	58.6	1.024877	-0.840217	0.000000	1.025000	0.000613	13	.......	1
	588	58.9	1.009892	-0.866017	0.000000	1.010000	0.000607	13	.......	1
	591	59.2	0.994918	-0.846546	0.000000	0.995000	0.000612	13	.......	1
	594	59.5	0.979909	-0.839032	0.000000	0.980000	0.000615	13	.......	1
	597	59.8	0.964849	-0.849647	0.000000	0.965000	0.000614	13	.......	1
	600	60.1	0.949878	-0.873859	0.000000	0.950000	0.000607	13	.......	1
	603	60.4	0.934856	-0.894731	0.000000	0.935000	0.000614	13	.......	1
	606	60.7	0.919932	-0.894434	0.000000	0.920000	0.000610	13	.......	1
	609	61	0.904949	-0.891111	0.000000	0.905000	0.000608	13	.......	1
	612	61.3	0.889936	-0.950740	0.000000	0.890000	0.000610	13	.......	1
	615	61.6	0.874991	-0.945469	0.000000	0.875000	0.000614	13	.......	1
	618	61.9	0.859921	-0.943059	0.000000	0.860000	0.000613	13	.......	1
	621	62.2	0.844936	-0.980201	0.000000	0.845000	0.000615	13	.......	1
	624	62.5	0.829930	-1.009543	0.000000	0.830000	0.000614	13	.......	1
	627	62.8	0.814965	-0.978988	0.000000	0.815000	0.000614	13	.......	1
	630	63.1	0.799914	-1.004790	0.000000	0.800000	0.000616	13	.......	1
	633	63.4	0.784967	-1.003877	0.000000	0.785000	0.000616	13	.......	1
	636	63.7	0.769904	-1.010295	0.000000	0.770000	0.000609	13	.......	1
	639	64	0.754905	-1.032023	0.000000	0.755000	0.000610	13	.......	1
	642	64.3	0.739921	-1.033989	0.000000	0.740000	0.000615	13	.......	1
	645	64.6	0.724910	-1.057644	0.000000	0.725000	0.000613	13	.......	1
	648	64.9	0.709910	-1.051522	0.000000	0.710000	0.000613	13	.......	1
	651	65.2	0.694960	-1.063585	0.000000	0.695000	0.000614	13	.......	1
	654	65.5	0.679919	-1.065135	0.000000	0.680000	0.000613	13	.......	1
	657	65.8	0.664928	-1.042909	0.000000	0.665000	0.000617	13	.......	1
	660	66.1	0.649905	-1.045422	0.000000	0.650000	0.000610	13	.......	1
	663	66.4	0.634974	-1.048292	0.000000	0.635000	0.000609	13	.......	1
	666	66.7	0.619927	-1.066952	0.000000	0.620000	0.000610	13	.......	1
	669	67	0.604891	-1.052171	0.000000	0.605000	0.000613	13	.......	1
	672	67.3	0.589896	-1.072470	0.000000	0.590000	0.000613	13	.......	1
	675	67.6	0.574975	-1.077578	0.000000	0.575000	0.000611	13	.......	1
	678	67.9	0.559911	-1.090586	0.000000	0.560000	0.000615	13	.......	1
	681	68.2	0.544922	-1.124669	0.000000	0.545000	0.000615	13	.......	1
	684	68.5	0.529905	-1.166280	0.000000	0.530000	0.000610	13	.......	1
	687	68.8	0.514942	-1.204829	0.000000	0.515000	0.000616	13	.......	1
	690	69.1	0.499918	-1.262978	0.000000	0.500000	0.000615	13	.......	1
	693	69.4	0.484988	-1.323180	0.000000	0.485000	0.000612	13	.......	1
	696	69.7	0.470005	-1.432002	0.000000	0.470000	0.000610	13	.......	1
	699	70	0.455039	-1.523326	0.000000	0.455000	0.000615	13	.......	1
	702	70.3	0.439975	-1.631871	0.000000	0.440000	0.000610	13	.......	1
	705	70.6	0.425024	-1.727148	0.000000	0.425000	0.000613	13	.......	1
	708	70.9	0.409966	-1.850036	0.000000	0.410000	0.000616	13	.......	1
	711	71.2	0.395031	-1.947377	0.000000	0.395000	0.000613	13	.......	1
	714	71.5	0.380039	-2.038711	0.000000	0.380000	0.000617	13	.......	1
	717	71.8	0.365025	-2.114627	0.000000	0.365000	0.000618	13	.......	1
	720	72.1	0.349933	-2.169733	0.000000	0.350000	0.000610	13	.......	1
	723	72.4	0.335040	-2.198728	0.000000	0.335000	0.000616	13	.......	1
	726	72.7	0.320006	-2.215317	0.000000	0.320000	0.000619	13	.......	1
	729	73	0.305053	-2.203215	0.000000	0.305000	0.000615	13	.......	1
	732	73.3	0.290044	-2.172117	0.000000	0.290000	0.000613	13	.......	1
	735	73.6	0.275080	-2.167815	0.000000	0.275000	0.000616	13	.......	1
	738	73.9	0.260052	-2.141972	0.000000	0.260000	0.000614	13	.......	1
	741	74.2	0.244950	-2.128865	0.000000	0.245000	0.000613	13	.......	1
	744	74.5	0.230008	-2.136240	0.000000	0.230000	0.000613	13	.......	1
	747	74.8	0.215052	-2.160572	0.000000	0.215000	0.000614	13	.......	1
	750	75.1	0.200034	-2.226501	0.000000	0.200000	0.000614	13	.......	1
	753	75.4	0.185049	-2.301505	0.000000	0.185000	0.000611	13	.......	1
	756	75.7	0.170077	-2.360889	0.000000	0.170000	0.000613	13	.......	1
	759	76	0.155067	-2.393433	0.000000	0.155000	0.000611	13	.......	1
	762	76.3	0.140021	-2.390393	0.000000	0.140000	0.000612	13	.......	1
	765	76.6	0.125019	-2.415994	0.000000	0.125000	0.000617	13	.......	1
	768	76.9	0.110037	-2.474924	0.000000	0.110000	0.000610	13	.......	1
	771	77.2	0.095111	-2.502995	0.000000	0.095000	0.000613	13	.......	1
	774	77.5	0.080088	-2.542924	0.000000	0.080000	0.000615	13	.......	1
	777	77.8	0.065073	-2.512744	0.000000	0.065000	0.000612	13	.......	1
	780	78.1	0.050095	-2.473333	0.000000	0.050000	0.000609	13	.......	1
	783	78.4	0.064969	0.032514	0.000000	0.065000	0.000614	13	.......	1
	786	78.7	0.079921	0.519565	0.000000	0.080000	0.000615	13	.......	1
	789	79	0.094983	0.733280	0.000000	0.095000	0.000615	13	.......	1
	792	79.3	0.109859	0.853094	0.000000	0.110000	0.000612	13	.......	1
	795	79.6	0.124861	0.904105	0.000000	0.125000	0.000614	13	.......	1
	798	79.9	0.139855	0.916146	0.000000	0.140000	0.000616	13	.......	1
	801	80.2	0.154883	0.946411	0.000000	0.155000	0.000618	13	.......	1
	804	80.5	0.169852	1.041500	0.000000	0.170000	0.000615	13	.......	1
	807	80.8	0.184876	1.114123	0.000000	0.185000	0.000614	13	.......	1
	810	81.1	0.199872	1.140794	0.000000	0.200000	0.000613	13	.......	1
	813	81.4	0.214888	0.972622	0.000000	0.215000	0.000618	13	.......	1
	816	81.7	0.229856	0.718530	0.000000	0.230000	0.000609	13	.......	1
	819	82	0.244821	0.581077	0.000000	0.245000	0.000614	13	.......	1
	822	82.3	0.259901	0.539623	0.000000	0.260000	0.000615	13	.......	1
	825	82.6	0.274948	0.553410	0.000000	0.275000	0.000610	13	.......	1
	828	82.9	0.289888	0.502605	0.000000	0.290000	0.000609	13	.......	1
	831	83.2	0.304932	0.445378	0.000000	0.305000	0.000616	13	.......	1
	834	83.5	0.319871	0.436610	0.000000	0.320000	0.000614	13	.......	1
	837	83.8	0.334877	0.443855	0.000000	0.335000	0.000611	13	.......	1
	840	84.1	0.349831	0.463683	0.000000	0.350000	0.000609	13	.......	1
	843	84.4	0.364876	0.505188	0.000000	0.365000	0.000619	13	.......	1
	846	84.7	0.379893	0.510736	0.000000	0.380000	0.000613	13	.......	1
	849	85	0.394883	0.557513	0.000000	0.395000	0.000610	13	.......	1
	852	85.3	0.409844	0.586029	0.000000	0.410000	0.000611	13	.......	1
	855	85.6	0.424925	0.604773	0.000000	0.425000	0.000610	13	.......	1
	858	85.9	0.439865	0.629159	0.000000	0.440000	0.000610	13	.......	1
	861	86.2	0.454902	0.673114	0.000000	0.455000	0.000615	13	.......	1
	864	86.5	0.469881	0.677476	0.000000	0.470000	0.000611	13	.......	1
	867	86.8	0.484884	0.724638	0.000000	0.485000	0.000617	13	.......	1
	870	87.1	0.499843	0.740049	0.000000	0.500000	0.000617	13	.......	1
	873	87.4	0.514810	0.770785	0.000000	0.515000	0.000614	13	.......	1
	876	87.7	0.529803	0.807025	0.000000	0.530000	0.000611	13	.......	1
	879	88	0.544809	0.856949	0.000000	0.545000	0.000615	13	.......	1
	882	88.3	0.559831	0.891349	0.000000	0.560000	0.000616	13	.......	1
	885	88.6	0.574861	0.954452	0.000000	0.575000	0.000613	13	.......	1
	888	88.9	0.589807	0.986406	0.000000	0.590000	0.000616	13	.......	1
	891	89.2	0.604780	1.047487	0.000000	0.605000	0.000615	13	.......	1
	894	89.5	0.619833	1.095069	0.000000	0.620000	0.000611	13	.......	1
	897	89.8	0.634819	1.130177	0.000000	0.635000	0.000611	13	.......	1
	900	90.1	0.649795	1.193227	0.000000	0.650000	0.000616	13	.......	1
	903	90.4	0.664797	1.253617	0.000000	0.665000	0.000616	13	.......	1
	906	90.7	0.679833	1.287988	0.000000	0.680000	0.000610	13	.......	1
	909	91	0.694811	1.314716	0.000000	0.695000	0.000613	13	.......	1
	912	91.3	0.709814	1.361005	0.000000	0.710000	0.000613	13	.......	1
	915	91.6	0.724784	1.395418	0.000000	0.725000	0.000607	13	.......	1
	918	91.9	0.739829	1.436961	0.000000	0.740000	0.000613	13	.......	1
	921	92.2	0.754765	1.437850	0.000000	0.755000	0.000610	13	.......	1
	924	92.5	0.769788	1.447238	0.000000	0.770000	0.000612	13	.......	1
	927	92.8	0.784811	1.461470	0.000000	0.785000	0.000614	13	.......	1
	930	93.1	0.799811	1.455147	0.000000	0.800000	0.000614	13	.......	1
	933	93.4	0.814797	1.481008	0.000000	0.815000	0.000611	13	.......	1
	936	93.7	0.829820	1.509033	0.000000	0.830000	0.000615	13	.......	1
	939	94	0.844822	1.484302	0.000000	0.845000	0.000616	13	.......	1
	942	94.3	0.859833	1.467733	0.000000	0.860000	0.000613	13	.......	1
	945	94.6	0.874834	1.474302	0.000000	0.875000	0.000615	13	.......	1
	948	94.9	0.889813	1.474447	0.000000	0.890000	0.000614	13	.......	1
	951	95.2	0.904819	1.476829	0.000000	0.905000	0.000612	13	.......	1
	954	95.5	0.919834	1.450340	0.000000	0.920000	0.000612	13	.......	1
	957	95.8	0.934703	1.467372	0.000000	0.935000	0.000613	13	.......	1
	960	96.1	0.949769	1.472129	0.000000	0.950000	0.000612	13	.......	1
	963	96.4	0.964734	1.482967	0.000000	0.965000	0.000616	13	.......	1
	966	96.7	0.979815	1.502943	0.000000	0.980000	0.000616	13	.......	1
	969	97	0.994770	1.481498	0.000000	0.995000	0.000614	13	.......	1
	972	97.3	1.009777	1.519281	0.000000	1.010000	0.000610	13	.......	1
	975	97.6	1.024739	1.564819	0.000000	1.025000	0.000617	13	.......	1
	978	97.9	1.039807	1.564487	0.000000	1.040000	0.000618	13	.......	1
	981	98.2	1.054733	1.594055	0.000000	1.055000	0.000614	13	.......	1
	984	98.5	1.069760	1.650249	0.000000	1.070000	0.000617	13	.......	1
	987	98.8	1.084774	1.685911	0.000000	1.085000	0.000618	13	.......	1
	990	99.1	1.099822	1.761180	0.000000	1.100000	0.000611	13	.......	1
	993	99.4	1.114691	1.804852	0.000000	1.115000	0.000612	13	.......	1
	996	99.7	1.129728	1.868832	0.000000	1.130000	0.000618	13	.......	1
	999	100	1.144740	1.901073	0.000000	1.145000	0.000617	13	.......	1
	1002	100.3	1.159743	1.941514	0.000000	1.160000	0.000615	13	.......	1
	1005	100.6	1.174697	2.018336	0.000000	1.175000	0.000615	13	.......	1
	1008	100.9	1.189782	2.030615	0.000000	1.190000	0.000614	13	.......	1
	1011	101.2	1.204697	2.089593	0.000000	1.205000	0.000614	13	.......	1
	1014	101.5	1.219787	2.115543	0.000000	1.220000	0.000617	13	.......	1
	1017	101.8	1.234710	2.178710	0.000000	1.235000	0.000614	13	.......	1
	1020	102.1	1.249732	2.219541	0.000000	1.250000	0.000611	13	.......	1
	1023	102.4	1.264717	2.257485	0.000000	1.265000	0.000616	13	.......	1
	1026	102.7	1.279761	2.297317	0.000000	1.280000	0.000617	13	.......	1
	1029	103	1.294731	2.344218	0.000000	1.295000	0.000610	13	.......	1
	1032	103.3	1.309758	2.393142	0.000000	1.310000	0.000614	13	.......	1
	1035	103.6	1.324697	2.463110	0.000000	1.325000	0.000612	13	.......	1
	1038	103.9	1.339702	2.516899	0.000000	1.340000	0.000612	13	.......	1
	1041	104.2	1.344727	0.790509	0.000000	1.345000	0.000615	13	.......	2
	1044	104.5	1.329839	-0.104533	0.000000	1.330000	0.000610	13	.......	2
	1047	104.8	1.314861	-0.412938	0.000000	1.315000	0.000613	13	.......	2
	1050	105.1	1.299915	-0.599446	0.000000	1.300000	0.000613	13	.......	2
	1053	105.4	1.284901	-0.671365	0.000000	1.285000	0.000615	13	.......	2
	1056	105.7	1.269862	-0.721166	0.000000	1.270000	0.000609	13	.......	2
	1059	106	1.254864	-0.735320	0.000000	1.255000	0.000616	13	.......	2
	1062	106.3	1.239898	-0.761893	0.000000	1.240000	0.000611	13	.......	2
	1065	106.6	1.224899	-0.780050	0.000000	1.225000	0.000611	13	.......	2
	1068	106.9	1.209876	-0.773122	0.000000	1.210000	0.000614	13	.......	2
	1071	107.2	1.194901	-0.797839	0.000000	1.195000	0.000613	13	.......	2
	1074	107.5	1.179913	-0.791377	0.000000	1.180000	0.000610	13	.......	2
	1077	107.8	1.164852	-0.811985	0.000000	1.165000	0.000614	13	.......	2
	1080	108.1	1.149878	-0.804097	0.000000	1.150000	0.000613	13	.......	2
	1083	108.4	1.134891	-0.821025	0.000000	1.135000	0.000616	13	.......	2
	1086	108.7	1.119910	-0.801527	0.000000	1.120000	0.000618	13	.......	2
	1089	109	1.104904	-0.807586	0.000000	1.105000	0.000615	13	.......	2
	1092	109.3	1.089853	-0.813513	0.000000	1.090000	0.000617	13	.......	2
	1095	109.6	1.074861	-0.792734	0.000000	1.075000	0.000617	13	.......	2
	1098	109.9	1.059892	-0.805678	0.000000	1.060000	0.000616	13	.......	2
	1101	110.2	1.044904	-0.803878	0.000000	1.045000	0.000613	13	.......	2
	1104	110.5	1.029886	-0.807278	0.000000	1.030000	0.000613	13	.......	2
	1107	110.8	1.014901	-0.809703	0.000000	1.015000	0.000617	13	.......	2
	1110	111.1	0.999888	-0.814274	0.000000	1.000000	0.000615	13	.......	2
	1113	111.4	0.984928	-0.812281	0.000000	0.985000	0.000613	13	.......	2
	1116	111.7	0.969856	-0.817482	0.000000	0.970000	0.000614	13	.......	2
	1119	112	0.954871	-0.818899	0.000000	0.955000	0.000610	13	.......	2
	1122	112.3	0.939926	-0.850658	0.000000	0.940000	0.000607	13	.......	2
	1125	112.6	0.924884	-0.833672	0.000000	0.925000	0.000615	13	.......	2
	1128	112.9	0.909895	-0.847831	0.000000	0.910000	0.000614	13	.......	2
	1131	113.2	0.895024	-0.883391	0.000000	0.895000	0.000617	13	.......	2
	1134	113.5	0.879951	-0.870301	0.000000	0.880000	0.000617	13	.......	2
	1137	113.8	0.864939	-0.910075	0.000000	0.865000	0.000619	13	.......	2
	1140	114.1	0.849917	-0.912661	0.000000	0.850000	0.000610	13	.......	2
	1143	114.4	0.834977	-0.928277	0.000000	0.835000	0.000617	13	.......	2
	1146	114.7	0.819915	-0.931033	0.000000	0.820000	0.000613	13	.......	2
	1149	115	0.804923	-0.951755	0.000000	0.805000	0.000610	13	.......	2
	1152	115.3	0.789909	-0.981295	0.000000	0.790000	0.000611	13	.......	2
	1155	115.6	0.774958	-0.973557	0.000000	0.775000	0.000616	13	.......	2
	1158	115.9	0.759903	-0.970012	0.000000	0.760000	0.000611	13	.......	2
	1161	116.2	0.744912	-1.012172	0.000000	0.745000	0.000611	13	.......	2
	1164	116.5	0.729888	-1.007851	0.000000	0.730000	0.000613	13	.......	2
	1167	116.8	0.714993	-0.992590	0.000000	0.715000	0.000609	13	.......	2
	1170	117.1	0.699946	-0.982019	0.000000	0.700000	0.000609	13	.......	2
	1173	117.4	0.684924	-1.003142	0.000000	0.685000	0.000617	13	.......	2
	1176	117.7	0.669922	-1.004862	0.000000	0.670000	0.000611	13	.......	2
	1179	118	0.654924	-1.015741	0.000000	0.655000	0.000608	13	.......	2
	1182	118.3	0.639929	-1.020159	0.000000	0.640000	0.000614	13	.......	2
	1185	118.6	0.624937	-1.032899	0.000000	0.625000	0.000613	13	.......	2
	1188	118.9	0.609908	-1.019586	0.000000	0.610000	0.000605	13	.......	2
	1191	119.2	0.594944	-1.067324	0.000000	0.595000	0.000612	13	.......	2
	1194	119.5	0.579937	-1.072640	0.000000	0.580000	0.000616	13	.......	2
	1197	119.8	0.564928	-1.115817	0.000000	0.565000	0.000614	13	.......	2
	1200	120.1	0.549916	-1.148197	0.000000	0.550000	0.000609	13	.......	2
	1203	120.4	0.534992	-1.191062	0.000000	0.535000	0.000614	13	.......	2
	1206	120.7	0.519938	-1.252325	0.000000	0.520000	0.000607	13	.......	2
	1209	121	0.505003	-1.321123	0.000000	0.505000	0.000609	13	.......	2
	1212	121.3	0.489987	-1.433338	0.000000	0.490000	0.000610	13	.......	2
	1215	121.6	0.475052	-1.526403	0.000000	0.475000	0.000611	13	.......	2
	1218	121.9	0.459986	-1.665718	0.000000	0.460000	0.000608	13	.......	2
	1221	122.2	0.444987	-1.809607	0.000000	0.445000	0.000610	13	.......	2
	1224	122.5	0.429993	-1.924968	0.000000	0.430000	0.000606	13	.......	2
	1227	122.8	0.415054	-2.070386	0.000000	0.415000	0.000608	13	.......	2
	1230	123.1	0.399974	-2.199478	0.000000	0.400000	0.000612	13	.......	2
	1233	123.4	0.385019	-2.306877	0.000000	0.385000	0.000614	13	.......	2
	1236	123.7	0.370054	-2.381336	0.000000	0.370000	0.000609	13	.......	2
	1239	124	0.355043	-2.430453	0.000000	0.355000	0.000610	13	.......	2
	1242	124.3	0.339993	-2.429782	0.000000	0.340000	0.000610	13	.......	2
	1245	124.6	0.324996	-2.415641	0.000000	0.325000	0.000610	13	.......	2
	1248	124.9	0.309980	-2.349177	0.000000	0.310000	0.000610	13	.......	2
	1251	125.2	0.295065	-2.273587	0.000000	0.295000	0.000613	13	.......	2
	1254	125.5	0.280055	-2.203548	0.000000	0.280000	0.000607	13	.......	2
	1257	125.8	0.265063	-2.146163	0.000000	0.265000	0.000608	13	.......	2
	1260	126.1	0.249994	-2.086025	0.000000	0.250000	0.000608	13	.......	2
	1263	126.4	0.235040	-2.056446	0.000000	0.235000	0.000609	13	.......	2
	1266	126.7	0.220053	-2.055388	0.000000	0.220000	0.000611	13	.......	2
	1269	127	0.205017	-2.120998	0.000000	0.205000	0.000614	13	.......	2
	1272	127.3	0.190035	-2.223288	0.000000	0.190000	0.000609	13	.......	2
	1275	127.6	0.175105	-2.276859	0.000000	0.175000	0.000610	13	.......	2
	1278	127.9	0.160060	-2.295129	0.000000	0.160000	0.000615	13	.......	2
	1281	128.2	0.145028	-2.231410	0.000000	0.145000	0.000615	13	.......	2
	1284	128.5	0.130008	-2.223773	0.000000	0.130000	0.000612	13	.......	2
	1287	128.8	0.115056	-2.263009	0.000000	0.115000	0.000612	13	.......	2
	1290	129.1	0.100093	-2.301688	0.000000	0.100000	0.000614	13	.......	2
	1293	129.4	0.085086	-2.357146	0.000000	0.085000	0.000608	13	.......	2
	1296	129.7	0.070114	-2.346326	0.000000	0.070000	0.000611	13	.......	2
	1299	130	0.055113	-2.307168	0.000000	0.055000	0.000616	13	.......	2
	1302	130.3	0.059973	0.069652	0.000000	0.060000	0.000613	13	.......	2
	1305	130.6	0.074992	0.697949	0.000000	0.075000	0.000612	13	.......	2
	1308	130.9	0.089855	0.912234	0.000000	0.090000	0.000612	13	.......	2
	1311	131.2	0.104886	1.020810	0.000000	0.105000	0.000611	13	.......	2
	1314	131.5	0.119875	1.055637	0.000000	0.120000	0.000611	13	.......	2
	1317	131.8	0.134865	1.048085	0.000000	0.135000	0.000615	13	.......	2
	1320	132.1	0.149829	1.087696	0.000000	0.150000	0.000612	13	.......	2
	1323	132.4	0.164884	1.164158	0.000000	0.165000	0.000612	13	.......	2
	1326	132.7	0.179858	1.331497	0.000000	0.180000	0.000615	13	.......	2
	1329	133	0.194851	1.464086	0.000000	0.195000	0.000612	13	.......	2
	1332	133.3	0.209845	1.359726	0.000000	0.210000	0.000613	13	.......	2
	1335	133.6	0.224896	1.081927	0.000000	0.225000	0.000616	13	.......	2
	1338	133.9	0.239856	0.869532	0.000000	0.240000	0.000615	13	.......	2
	1341	134.2	0.254913	0.762086	0.000000	0.255000	0.000611	13	.......	2
	1344	134.5	0.269848	0.722390	0.000000	0.270000	0.000611	13	.......	2
	1347	134.8	0.284879	0.678323	0.000000	0.285000	0.000615	13	.......	2
	1350	135.1	0.299901	0.589152	0.000000	0.300000	0.000612	13	.......	2
	1353	135.4	0.314881	0.554529	0.000000	0.315000	0.000612	13	.......	2
	1356	135.7	0.329858	0.517405	0.000000	0.330000	0.000612	13	.......	2
	1359	136	0.344865	0.518755	0.000000	0.345000	0.000613	13	.......	2
	1362	136.3	0.359861	0.546491	0.000000	0.360000	0.000616	13	.......	2
	1365	136.6	0.374951	0.562753	0.000000	0.375000	0.000613	13	.......	2
	1368	136.9	0.389854	0.575909	0.000000	0.390000	0.000612	13	.......	2
	1371	137.2	0.404864	0.605534	0.000000	0.405000	0.000615	13	.......	2
	1374	137.5	0.419877	0.634898	0.000000	0.420000	0.000617	13	.......	2
	1377	137.8	0.434912	0.638537	0.000000	0.435000	0.000618	13	.......	2
	1380	138.1	0.449812	0.673502	0.000000	0.450000	0.000613	13	.......	2
	1383	138.4	0.464921	0.690807	0.000000	0.465000	0.000618	13	.......	2
	1386	138.7	0.479892	0.713862	0.000000	0.480000	0.000619	13	.......	2
	1389	139	0.494903	0.720779	0.000000	0.495000	0.000616	13	.......	2
	1392	139.3	0.509843	0.758777	0.000000	0.510000	0.000611	13	.......	2
	1395	139.6	0.524824	0.805708	0.000000	0.525000	0.000616	13	.......	2
	1398	139.9	0.539838	0.837198	0.000000	0.540000	0.000612	13	.......	2
	1401	140.2	0.554778	0.869046	0.000000	0.555000	0.000613	13	.......	2
	1404	140.5	0.569837	0.940874	0.000000	0.570000	0.000612	13	.......	2
	1407	140.8	0.584867	0.956311	0.000000	0.585000	0.000613	13	.......	2
	1410	141.1	0.599835	1.024806	0.000000	0.600000	0.000612	13	.......	2
	1413	141.4	0.614790	1.081301	0.000000	0.615000	0.000613	13	.......	2
	1416	141.7	0.629802	1.131166	0.000000	0.630000	0.000610	13	.......	2
	1419	142	0.644790	1.154802	0.000000	0.645000	0.000608	13	.......	2
	1422	142.3	0.659829	1.225004	0.000000	0.660000	0.000611	13	.......	2
	1425	142.6	0.674831	1.251686	0.000000	0.675000	0.000609	13	.......	2
	1428	142.9	0.689819	1.312190	0.000000	0.690000	0.000603	13	.......	2
	1431	143.2	0.704783	1.355507	0.000000	0.705000	0.000612	13	.......	2
	1434	143.5	0.719813	1.409263	0.000000	0.720000	0.000613	13	.......	2
	1437	143.8	0.734797	1.403839	0.000000	0.735000	0.000611	13	.......	2
	1440	144.1	0.749796	1.399706	0.000000	0.750000	0.000612	13	.......	2
	1443	144.4	0.764754	1.438210	0.000000	0.765000	0.000610	13	.......	2
	1446	144.7	0.779829	1.460672	0.000000	0.780000	0.000613	13	.......	2
	1449	145	0.794751	1.432483	0.000000	0.795000	0.000614	13	.......	2
	1452	145.3	0.809750	1.438030	0.000000	0.810000	0.000616	13	.......	2
	1455	145.6	0.824806	1.458739	0.000000	0.825000	0.000608	13	.......	2
	1458	145.9	0.839854	1.440927	0.000000	0.840000	0.000606	13	.......	2
	1461	146.2	0.854808	1.450102	0.000000	0.855000	0.000617	13	.......	2
	1464	146.5	0.869801	1.442087	0.000000	0.870000	0.000608	13	.......	2
	1467	146.8	0.884801	1.450340	0.000000	0.885000	0.000614	13	.......	2
	1470	147.1	0.899836	1.439629	0.000000	0.900000	0.000614	13	.......	2
	1473	147.4	0.914780	1.454044	0.000000	0.915000	0.000611	13	.......	2
	1476	147.7	0.929776	1.442802	0.000000	0.930000	0.000609	13	.......	2
	1479	148	0.944776	1.444363	0.000000	0.945000	0.000616	13	.......	2
	1482	148.3	0.959778	1.449014	0.000000	0.960000	0.000614	13	.......	2
	1485	148.6	0.974787	1.460292	0.000000	0.975000	0.000609	13	.......	2
	1488	148.9	0.989796	1.472234	0.000000	0.990000	0.000613	13	.......	2
	1491	149.2	1.004761	1.499690	0.000000	1.005000	0.000619	13	.......	2
	1494	149.5	1.019819	1.535151	0.000000	1.020000	0.000612	13	.......	2
	1497	149.8	1.034757	1.540838	0.000000	1.035000	0.000610	13	.......	2
	1500	150.1	1.049751	1.607383	0.000000	1.050000	0.000617	13	.......	2
	1503	150.4	1.064721	1.646628	0.000000	1.065000	0.000611	13	.......	2
	1506	150.7	1.079807	1.680607	0.000000	1.080000	0.000612	13	.......	2
	1509	151	1.094776	1.757902	0.000000	1.095000	0.000615	13	.......	2
	1512	151.3	1.109798	1.803793	0.000000	1.110000	0.000610	13	.......	2
	1515	151.6	1.124772	1.879341	0.000000	1.125000	0.000613	13	.......	2
	1518	151.9	1.139753	1.936773	0.000000	1.140000	0.000612	13	.......	2
	1521	152.2	1.154676	1.994641	0.000000	1.155000	0.000611	13	.......	2
	1524	152.5	1.169685	2.041724	0.000000	1.170000	0.000612	13	.......	2
	1527	152.8	1.184746	2.069350	0.000000	1.185000	0.000614	13	.......	2
	1530	153.1	1.199794	2.124253	0.000000	1.200000	0.000611	13	.......	2
	1533	153.4	1.214733	2.199081	0.000000	1.215000	0.000611	13	.......	2
	1536	153.7	1.229745	2.224208	0.000000	1.230000	0.000617	13	.......	2
	1539	154	1.244718	2.283508	0.000000	1.245000	0.000615	13	.......	2
	1542	154.3	1.259759	2.314459	0.000000	1.260000	0.000612	13	.......	2
	1545	154.6	1.274681	2.346190	0.000000	1.275000	0.000610	13	.......	2
	1548	154.9	1.289757	2.410941	0.000000	1.290000	0.000617	13	.......	2
	1551	155.2	1.304758	2.452067	0.000000	1.305000	0.000612	13	.......	2
	1554	155.5	1.319724	2.516771	0.000000	1.320000	0.000612	13	.......	2
	1557	155.8	1.334658	2.556360	0.000000	1.335000	0.000618	13	.......	2
	1559	156	1.344637	2.625708	0.000000	1.345000	0.000617	13	.......	2