File: LSTM/50um/1079714-2/G21-9800-CV-01 Plot-cv data-240621 060159.DTA
EXPLAIN
TAG	CV
TITLE	LABEL	Cyclic Voltammetry	Test &Identifier
DATE	LABEL	2024-06-21	Date
TIME	LABEL	6:01:59 AM	Time
NOTES	NOTES	1	&Notes...
	GI-CV	FCATS v19.0.1f5
PSTAT	PSTAT	REF3000-42167	Potentiostat
VINIT	POTEN	1.350000E+0	F	Initial &E (V)
VLIMIT1	POTEN	1.350000E+0	F	Scan Limit &1 (V)
VLIMIT2	POTEN	5.000000E-2	F	Scan Limit &2 (V)
VFINAL	POTEN	1.350000E+0	F	Final &E (V)
SCANRATE	QUANT	5.000000E-2	&Scan Rate (V/s)
STEPSIZE	QUANT	2	St&ep Size (V)
CYCLES	IQUANT	3	C&ycles (#)
IMODE	SELECTOR	1	I/E Range &Mode
IRANGE	QUANT	NaN	&Max Current (mA)
AREA	QUANT	5.000000E+1	Electrode &Area (cm^2)
ELECTRODETYPE	SELECTOR	0	Electrode Type
STRIPPING	TOGGLE	F	Used for Stripping
POLARITY	TOGGLE	F	Signal Polarity
CONDIT	TWOPARAM	F	0.00000E+000	0.00000E+000	Conditionin&g	Time(s)	E(V)
DELAY	TWOPARAM	0	0.000000E+0	0.00000E+000	Init. De&lay	Time(s)	Stab.(mV/s)
EQDELAY	QUANT	0.000000E+0	Equil. &Time (s)
IRCOMP	SELECTOR	0	IRCom&p
PFCOR	QUANT	0.00000E+000	PF Corr. (ohm)
SAMPLINGMODE	SELECTOR	Surface	Sampling &Mode
EOC	QUANT	0	Open Circuit (V)
PSTATMODEL	IQUANT	6.000000E+0	Pstat Model
PSTATSECTION	LABEL	REF3000-42167	Pstat Section
PSTATSERIALNO	LABEL	42167	Pstat Serial Number
CTRLMODE	IQUANT	0	Control Mode
IESTAB	IQUANT	2	I/E Stability
CASPEED	IQUANT	2	Control Amp Speed
CONVENTION	IQUANT	1	Current Convention
ICHRANGE	IQUANT	2	Ich Range
ICHRANGEMODE	TOGGLE	F	Ich Auto Range
ICHOFFSETENABLE	TOGGLE	F	Ich Offset Enable
ICHOFFSET	QUANT	0	Ich Offset (V)
ICHFILTER	IQUANT	3	Ich Filter
VCHRANGE	IQUANT	2	Vch Range
VCHRANGEMODE	TOGGLE	F	Vch Auto Range
VCHOFFSETENABLE	TOGGLE	F	Vch Offset Enable
VCHOFFSET	QUANT	0	Vch Offset (V)
VCHFILTER	IQUANT	3	Vch Filter
ACHRANGE	IQUANT	2	Ach Range
ACHOFFSETENABLE	TOGGLE	F	Ach Offset Enable
ACHOFFSET	QUANT	0	Ach Offset (V)
ACHFILTER	IQUANT	1	Ach Filter
IERANGELOWERLIMIT	IQUANT	2	I/E Range Lower Limit
IERANGEMODE	TOGGLE	F	I/E AutoRange
IERANGE	IQUANT	9	I/E Range
POSFEEDENABLE	TOGGLE	F	Positive Feedback IR Comp
POSFEEDRESISTANCE	QUANT	0	Positive Feedback Resistance (ohm)
ACHSELECT	IQUANT	0	Ach Select
CABLEID	IQUANT	14	Cable ID
DCCALDATE	LABEL	N/A	DC Calibration Date
ACCALDATE	LABEL	N/A	AC Calibration Date
THERMOSELECT	IQUANT	1	Thermo Select
FRAMEWORKVERSION	QUANT	7.8.2.7430	Framework Version
INSTRUMENTVERSION	LABEL	2.31	Instrument Version
COMPLIANCEVOLTAGE	IQUANT	0	Compliance Voltage
CURVE1	TABLE
	Pt	T	Vf	Im	Vu	Sig	Ach	IERange	Over	Cycle
	#	s	V vs. Ref.	A	V	V	V	#	bits	#
	0	0.100000	1.349730	1.727594	0.000000	1.350000	0.001693	13	.......	0
	3	0.400000	1.334764	0.095599	0.000000	1.335000	0.000598	13	.......	0
	6	0.700000	1.319845	-0.158011	0.000000	1.320000	0.000599	13	.......	0
	9	1.000000	1.304871	-0.279674	0.000000	1.305000	0.000600	13	.......	0
	12	1.300000	1.289880	-0.353896	0.000000	1.290000	0.000601	13	.......	0
	15	1.600000	1.274789	-0.405767	0.000000	1.275000	0.000598	13	.......	0
	18	1.900000	1.259879	-0.444953	0.000000	1.260000	0.000596	13	.......	0
	21	2.200000	1.244815	-0.478148	0.000000	1.245000	0.000601	13	.......	0
	24	2.500000	1.229850	-0.504784	0.000000	1.230000	0.000599	13	.......	0
	27	2.800000	1.214855	-0.525178	0.000000	1.215000	0.000594	13	.......	0
	30	3.100000	1.199891	-0.541467	0.000000	1.200000	0.000598	13	.......	0
	33	3.400000	1.184865	-0.551144	0.000000	1.185000	0.000600	13	.......	0
	36	3.700000	1.169814	-0.554859	0.000000	1.170000	0.000591	13	.......	0
	39	4.000000	1.154777	-0.552695	0.000000	1.155000	0.000593	13	.......	0
	42	4.300000	1.139853	-0.542185	0.000000	1.140000	0.000597	13	.......	0
	45	4.600000	1.124868	-0.525067	0.000000	1.125000	0.000593	13	.......	0
	48	4.900000	1.109889	-0.502180	0.000000	1.110000	0.000597	13	.......	0
	51	5.200000	1.094887	-0.475187	0.000000	1.095000	0.000599	13	.......	0
	54	5.500000	1.079893	-0.445426	0.000000	1.080000	0.000599	13	.......	0
	57	5.800000	1.064797	-0.416238	0.000000	1.065000	0.000596	13	.......	0
	60	6.100000	1.049852	-0.390894	0.000000	1.050000	0.000602	13	.......	0
	63	6.400000	1.034842	-0.371156	0.000000	1.035000	0.000598	13	.......	0
	66	6.700000	1.019900	-0.358606	0.000000	1.020000	0.000596	13	.......	0
	69	7.000000	1.004839	-0.358746	0.000000	1.005000	0.000599	13	.......	0
	72	7.300000	0.989868	-0.367925	0.000000	0.990000	0.000600	13	.......	0
	75	7.600000	0.974873	-0.388948	0.000000	0.975000	0.000598	13	.......	0
	78	7.900000	0.959863	-0.418636	0.000000	0.960000	0.000598	13	.......	0
	81	8.200000	0.944851	-0.454923	0.000000	0.945000	0.000601	13	.......	0
	84	8.500000	0.929867	-0.491859	0.000000	0.930000	0.000598	13	.......	0
	87	8.800000	0.914870	-0.531519	0.000000	0.915000	0.000600	13	.......	0
	90	9.100000	0.899910	-0.566359	0.000000	0.900000	0.000603	13	.......	0
	93	9.400001	0.884878	-0.600819	0.000000	0.885000	0.000600	13	.......	0
	96	9.700000	0.869872	-0.635310	0.000000	0.870000	0.000599	13	.......	0
	99	10	0.854901	-0.668264	0.000000	0.855000	0.000599	13	.......	0
	102	10.3	0.839932	-0.700039	0.000000	0.840000	0.000592	13	.......	0
	105	10.6	0.824908	-0.729642	0.000000	0.825000	0.000594	13	.......	0
	108	10.9	0.809852	-0.756239	0.000000	0.810000	0.000600	13	.......	0
	111	11.2	0.794846	-0.781936	0.000000	0.795000	0.000598	13	.......	0
	114	11.5	0.779914	-0.800689	0.000000	0.780000	0.000595	13	.......	0
	117	11.8	0.764842	-0.816552	0.000000	0.765000	0.000598	13	.......	0
	120	12.1	0.749883	-0.824461	0.000000	0.750000	0.000595	13	.......	0
	123	12.4	0.734914	-0.822959	0.000000	0.735000	0.000597	13	.......	0
	126	12.7	0.719895	-0.814118	0.000000	0.720000	0.000599	13	.......	0
	129	13	0.704887	-0.797066	0.000000	0.705000	0.000600	13	.......	0
	132	13.3	0.689901	-0.771515	0.000000	0.690000	0.000594	13	.......	0
	135	13.6	0.674920	-0.732857	0.000000	0.675000	0.000601	13	.......	0
	138	13.9	0.659893	-0.688306	0.000000	0.660000	0.000603	13	.......	0
	141	14.2	0.644857	-0.640621	0.000000	0.645000	0.000600	13	.......	0
	144	14.5	0.629861	-0.588939	0.000000	0.630000	0.000599	13	.......	0
	147	14.8	0.614852	-0.536748	0.000000	0.615000	0.000598	13	.......	0
	150	15.1	0.599899	-0.486610	0.000000	0.600000	0.000598	13	.......	0
	153	15.4	0.584907	-0.442587	0.000000	0.585000	0.000594	13	.......	0
	156	15.7	0.569892	-0.405792	0.000000	0.570000	0.000600	13	.......	0
	159	16	0.554814	-0.378046	0.000000	0.555000	0.000595	13	.......	0
	162	16.3	0.539894	-0.360956	0.000000	0.540000	0.000592	13	.......	0
	165	16.6	0.524873	-0.353890	0.000000	0.525000	0.000603	13	.......	0
	168	16.9	0.509887	-0.357924	0.000000	0.510000	0.000600	13	.......	0
	171	17.2	0.494946	-0.371722	0.000000	0.495000	0.000592	13	.......	0
	174	17.5	0.479925	-0.398048	0.000000	0.480000	0.000599	13	.......	0
	177	17.8	0.464958	-0.434124	0.000000	0.465000	0.000597	13	.......	0
	180	18.1	0.449868	-0.480065	0.000000	0.450000	0.000595	13	.......	0
	183	18.4	0.434954	-0.536888	0.000000	0.435000	0.000598	13	.......	0
	186	18.7	0.419920	-0.601791	0.000000	0.420000	0.000597	13	.......	0
	189	19	0.404913	-0.675247	0.000000	0.405000	0.000596	13	.......	0
	192	19.3	0.389904	-0.755745	0.000000	0.390000	0.000594	13	.......	0
	195	19.6	0.375008	-0.837834	0.000000	0.375000	0.000604	13	.......	0
	198	19.9	0.359907	-0.916915	0.000000	0.360000	0.000597	13	.......	0
	201	20.2	0.344929	-0.987315	0.000000	0.345000	0.000599	13	.......	0
	204	20.5	0.329912	-1.043282	0.000000	0.330000	0.000600	13	.......	0
	207	20.8	0.314956	-1.080168	0.000000	0.315000	0.000593	13	.......	0
	210	21.1	0.299942	-1.096684	0.000000	0.300000	0.000599	13	.......	0
	213	21.4	0.284951	-1.094404	0.000000	0.285000	0.000602	13	.......	0
	216	21.7	0.269901	-1.074465	0.000000	0.270000	0.000602	13	.......	0
	219	22	0.254995	-1.042423	0.000000	0.255000	0.000597	13	.......	0
	222	22.3	0.239923	-1.001139	0.000000	0.240000	0.000599	13	.......	0
	225	22.6	0.224960	-0.954647	0.000000	0.225000	0.000603	13	.......	0
	228	22.9	0.209924	-0.906007	0.000000	0.210000	0.000594	13	.......	0
	231	23.2	0.194957	-0.857063	0.000000	0.195000	0.000599	13	.......	0
	234	23.5	0.179915	-0.809879	0.000000	0.180000	0.000598	13	.......	0
	237	23.8	0.164969	-0.764908	0.000000	0.165000	0.000595	13	.......	0
	240	24.1	0.149878	-0.723901	0.000000	0.150000	0.000594	13	.......	0
	243	24.4	0.134933	-0.688134	0.000000	0.135000	0.000600	13	.......	0
	246	24.7	0.119917	-0.660708	0.000000	0.120000	0.000597	13	.......	0
	249	25	0.104941	-0.653098	0.000000	0.105000	0.000597	13	.......	0
	252	25.3	0.089901	-0.687036	0.000000	0.090000	0.000599	13	.......	0
	255	25.6	0.075049	-0.790437	0.000000	0.075000	0.000596	13	.......	0
	258	25.9	0.060010	-0.979618	0.000000	0.060000	0.000599	13	.......	0
	261	26.2	0.055038	-0.906947	0.000000	0.055000	0.000599	13	.......	0
	264	26.5	0.069915	-0.549355	0.000000	0.070000	0.000598	13	.......	0
	267	26.8	0.084956	-0.369361	0.000000	0.085000	0.000598	13	.......	0
	270	27.1	0.099912	-0.274790	0.000000	0.100000	0.000601	13	.......	0
	273	27.4	0.114909	-0.223339	0.000000	0.115000	0.000599	13	.......	0
	276	27.7	0.129860	-0.192083	0.000000	0.130000	0.000588	13	.......	0
	279	28	0.144861	-0.166324	0.000000	0.145000	0.000596	13	.......	0
	282	28.3	0.159897	-0.141486	0.000000	0.160000	0.000601	13	.......	0
	285	28.6	0.174981	-0.112389	0.000000	0.175000	0.000594	13	.......	0
	288	28.9	0.189883	-0.078396	0.000000	0.190000	0.000595	13	.......	0
	291	29.2	0.204872	-0.037720	0.000000	0.205000	0.000602	13	.......	0
	294	29.5	0.219889	0.011623	0.000000	0.220000	0.000593	13	.......	0
	297	29.8	0.234862	0.071027	0.000000	0.235000	0.000595	13	.......	0
	300	30.1	0.249844	0.140028	0.000000	0.250000	0.000597	13	.......	0
	303	30.4	0.264911	0.218459	0.000000	0.265000	0.000592	13	.......	0
	306	30.7	0.279883	0.311994	0.000000	0.280000	0.000595	13	.......	0
	309	31	0.294862	0.428688	0.000000	0.295000	0.000599	13	.......	0
	312	31.3	0.309829	0.572670	0.000000	0.310000	0.000591	13	.......	0
	315	31.6	0.324807	0.750525	0.000000	0.325000	0.000589	13	.......	0
	318	31.9	0.339832	0.966628	0.000000	0.340000	0.000597	13	.......	0
	321	32.2	0.354745	1.226590	0.000000	0.355000	0.000598	13	.......	0
	324	32.5	0.369834	1.534210	0.000000	0.370000	0.000595	13	.......	0
	327	32.8	0.384751	1.889346	0.000000	0.385000	0.000593	13	.......	0
	330	33.1	0.399799	2.289542	0.000000	0.400000	0.000597	13	.......	0
	333	33.4	0.414744	2.719123	0.000000	0.415000	0.000590	13	.......	0
	336	33.7	0.429757	3.168231	0.000000	0.430000	0.000596	13	.......	0
	339	34	0.444697	3.580490	0.000000	0.445000	0.000600	13	.......	0
	342	34.3	0.459766	3.818079	0.000000	0.460000	0.000595	13	.......	0
	345	34.6	0.474662	3.885095	0.000000	0.475000	0.000594	13	.......	0
	348	34.9	0.489727	3.853953	0.000000	0.490000	0.000596	13	.......	0
	351	35.2	0.504690	3.772865	0.000000	0.505000	0.000594	13	.......	0
	354	35.5	0.519704	3.692645	0.000000	0.520000	0.000592	13	.......	0
	357	35.8	0.534661	3.641717	0.000000	0.535000	0.000594	13	.......	0
	360	36.1	0.549683	3.627691	0.000000	0.550000	0.000591	13	.......	0
	363	36.4	0.564658	3.643846	0.000000	0.565000	0.000594	13	.......	0
	366	36.7	0.579763	3.684335	0.000000	0.580000	0.000596	13	.......	0
	369	37	0.594652	3.745319	0.000000	0.595000	0.000594	13	.......	0
	372	37.3	0.609669	3.819776	0.000000	0.610000	0.000591	13	.......	0
	375	37.6	0.624667	3.906539	0.000000	0.625000	0.000598	13	.......	0
	378	37.9	0.639700	4.004237	0.000000	0.640000	0.000598	13	.......	0
	381	38.2	0.654603	4.108363	0.000000	0.655000	0.000591	13	.......	0
	384	38.5	0.669696	4.214900	0.000000	0.670000	0.000598	13	.......	0
	387	38.8	0.684653	4.322049	0.000000	0.685000	0.000599	13	.......	0
	390	39.1	0.699709	4.429787	0.000000	0.700000	0.000592	13	.......	0
	393	39.4	0.714640	4.523028	0.000000	0.715000	0.000596	13	.......	0
	396	39.7	0.729627	4.612149	0.000000	0.730000	0.000596	13	.......	0
	399	40	0.744634	4.693145	0.000000	0.745000	0.000593	13	.......	0
	402	40.3	0.759582	4.763715	0.000000	0.760000	0.000593	13	.......	0
	405	40.6	0.774636	4.822186	0.000000	0.775000	0.000595	13	.......	0
	408	40.9	0.789652	4.870682	0.000000	0.790000	0.000595	13	.......	0
	411	41.2	0.804638	4.910247	0.000000	0.805000	0.000592	13	.......	0
	414	41.5	0.819619	4.937307	0.000000	0.820000	0.000598	13	.......	0
	417	41.8	0.834610	4.957875	0.000000	0.835000	0.000595	13	.......	0
	420	42.1	0.849624	4.967536	0.000000	0.850000	0.000588	13	.......	0
	423	42.4	0.864640	4.968563	0.000000	0.865000	0.000598	13	.......	0
	426	42.7	0.879680	4.962667	0.000000	0.880000	0.000600	13	.......	0
	429	43	0.894649	4.947343	0.000000	0.895000	0.000594	13	.......	0
	432	43.3	0.909596	4.925732	0.000000	0.910000	0.000602	13	.......	0
	435	43.6	0.924618	4.898222	0.000000	0.925000	0.000601	13	.......	0
	438	43.9	0.939624	4.864522	0.000000	0.940000	0.000598	13	.......	0
	441	44.2	0.954604	4.825485	0.000000	0.955000	0.000594	13	.......	0
	444	44.5	0.969560	4.783018	0.000000	0.970000	0.000600	13	.......	0
	447	44.8	0.984642	4.740074	0.000000	0.985000	0.000593	13	.......	0
	450	45.1	0.999570	4.698779	0.000000	1.000000	0.000602	13	.......	0
	453	45.4	1.014581	4.660479	0.000000	1.015000	0.000603	13	.......	0
	456	45.7	1.029612	4.631787	0.000000	1.030000	0.000594	13	.......	0
	459	46	1.044645	4.613324	0.000000	1.045000	0.000590	13	.......	0
	462	46.3	1.059602	4.607985	0.000000	1.060000	0.000597	13	.......	0
	465	46.6	1.074590	4.615515	0.000000	1.075000	0.000592	13	.......	0
	468	46.9	1.089567	4.638032	0.000000	1.090000	0.000593	13	.......	0
	471	47.2	1.104628	4.670331	0.000000	1.105000	0.000597	13	.......	0
	474	47.5	1.119625	4.714303	0.000000	1.120000	0.000598	13	.......	0
	477	47.8	1.134606	4.761533	0.000000	1.135000	0.000591	13	.......	0
	480	48.1	1.149589	4.814198	0.000000	1.150000	0.000602	13	.......	0
	483	48.4	1.164597	4.868641	0.000000	1.165000	0.000602	13	.......	0
	486	48.7	1.179617	4.923573	0.000000	1.180000	0.000595	13	.......	0
	489	49	1.194603	4.977193	0.000000	1.195000	0.000594	13	.......	0
	492	49.3	1.209582	5.029045	0.000000	1.210000	0.000601	13	.......	0
	495	49.6	1.224627	5.074828	0.000000	1.225000	0.000592	13	.......	0
	498	49.9	1.239599	5.119465	0.000000	1.240000	0.000593	13	.......	0
	501	50.2	1.254594	5.158419	0.000000	1.255000	0.000598	13	.......	0
	504	50.5	1.269545	5.196549	0.000000	1.270000	0.000594	13	.......	0
	507	50.8	1.284627	5.231922	0.000000	1.285000	0.000594	13	.......	0
	510	51.1	1.299633	5.268811	0.000000	1.300000	0.000597	13	.......	0
	513	51.4	1.314602	5.306209	0.000000	1.315000	0.000593	13	.......	0
	516	51.7	1.329559	5.352184	0.000000	1.330000	0.000593	13	.......	0
	519	52	1.344549	5.402463	0.000000	1.345000	0.000600	13	.......	0
	522	52.3	1.339705	2.356573	0.000000	1.340000	0.000593	13	.......	1
	525	52.6	1.324736	1.258459	0.000000	1.325000	0.000597	13	.......	1
	528	52.9	1.309829	0.743788	0.000000	1.310000	0.000595	13	.......	1
	531	53.2	1.294803	0.434660	0.000000	1.295000	0.000591	13	.......	1
	534	53.5	1.279855	0.231735	0.000000	1.280000	0.000598	13	.......	1
	537	53.8	1.264806	0.086777	0.000000	1.265000	0.000598	13	.......	1
	540	54.1	1.249842	-0.022170	0.000000	1.250000	0.000592	13	.......	1
	543	54.4	1.234806	-0.106408	0.000000	1.235000	0.000600	13	.......	1
	546	54.7	1.219880	-0.171233	0.000000	1.220000	0.000601	13	.......	1
	549	55	1.204789	-0.222102	0.000000	1.205000	0.000591	13	.......	1
	552	55.3	1.189885	-0.259633	0.000000	1.190000	0.000593	13	.......	1
	555	55.6	1.174798	-0.286519	0.000000	1.175000	0.000597	13	.......	1
	558	55.9	1.159857	-0.302300	0.000000	1.160000	0.000591	13	.......	1
	561	56.2	1.144824	-0.308580	0.000000	1.145000	0.000593	13	.......	1
	564	56.5	1.129838	-0.307347	0.000000	1.130000	0.000594	13	.......	1
	567	56.8	1.114792	-0.297976	0.000000	1.115000	0.000594	13	.......	1
	570	57.1	1.099908	-0.284824	0.000000	1.100000	0.000593	13	.......	1
	573	57.4	1.084870	-0.266388	0.000000	1.085000	0.000597	13	.......	1
	576	57.7	1.069842	-0.247474	0.000000	1.070000	0.000597	13	.......	1
	579	58	1.054818	-0.232914	0.000000	1.055000	0.000588	13	.......	1
	582	58.3	1.039882	-0.223215	0.000000	1.040000	0.000598	13	.......	1
	585	58.6	1.024792	-0.222482	0.000000	1.025000	0.000599	13	.......	1
	588	58.9	1.009855	-0.230667	0.000000	1.010000	0.000592	13	.......	1
	591	59.2	0.994823	-0.250001	0.000000	0.995000	0.000595	13	.......	1
	594	59.5	0.979888	-0.277584	0.000000	0.980000	0.000594	13	.......	1
	597	59.8	0.964774	-0.316494	0.000000	0.965000	0.000589	13	.......	1
	600	60.1	0.949843	-0.361063	0.000000	0.950000	0.000590	13	.......	1
	603	60.4	0.934773	-0.408938	0.000000	0.935000	0.000597	13	.......	1
	606	60.7	0.919904	-0.456521	0.000000	0.920000	0.000591	13	.......	1
	609	61	0.904902	-0.505045	0.000000	0.905000	0.000593	13	.......	1
	612	61.3	0.889900	-0.553790	0.000000	0.890000	0.000597	13	.......	1
	615	61.6	0.874933	-0.605641	0.000000	0.875000	0.000594	13	.......	1
	618	61.9	0.859906	-0.655368	0.000000	0.860000	0.000590	13	.......	1
	621	62.2	0.844898	-0.704070	0.000000	0.845000	0.000599	13	.......	1
	624	62.5	0.829907	-0.749938	0.000000	0.830000	0.000596	13	.......	1
	627	62.8	0.814926	-0.793061	0.000000	0.815000	0.000591	13	.......	1
	630	63.1	0.799899	-0.833822	0.000000	0.800000	0.000600	13	.......	1
	633	63.4	0.784912	-0.868625	0.000000	0.785000	0.000600	13	.......	1
	636	63.7	0.769893	-0.898225	0.000000	0.770000	0.000594	13	.......	1
	639	64	0.754879	-0.921365	0.000000	0.755000	0.000598	13	.......	1
	642	64.3	0.739907	-0.938677	0.000000	0.740000	0.000599	13	.......	1
	645	64.6	0.724890	-0.947392	0.000000	0.725000	0.000591	13	.......	1
	648	64.9	0.709888	-0.948501	0.000000	0.710000	0.000596	13	.......	1
	651	65.2	0.694923	-0.946561	0.000000	0.695000	0.000596	13	.......	1
	654	65.5	0.679899	-0.928417	0.000000	0.680000	0.000593	13	.......	1
	657	65.8	0.664872	-0.907695	0.000000	0.665000	0.000595	13	.......	1
	660	66.1	0.649882	-0.880946	0.000000	0.650000	0.000596	13	.......	1
	663	66.4	0.634907	-0.852015	0.000000	0.635000	0.000595	13	.......	1
	666	66.7	0.619905	-0.823603	0.000000	0.620000	0.000593	13	.......	1
	669	67	0.604834	-0.798503	0.000000	0.605000	0.000602	13	.......	1
	672	67.3	0.589867	-0.780611	0.000000	0.590000	0.000598	13	.......	1
	675	67.6	0.574931	-0.769995	0.000000	0.575000	0.000592	13	.......	1
	678	67.9	0.559893	-0.768533	0.000000	0.560000	0.000593	13	.......	1
	681	68.2	0.544865	-0.778841	0.000000	0.545000	0.000597	13	.......	1
	684	68.5	0.529877	-0.801067	0.000000	0.530000	0.000590	13	.......	1
	687	68.8	0.514874	-0.837202	0.000000	0.515000	0.000594	13	.......	1
	690	69.1	0.499896	-0.884189	0.000000	0.500000	0.000598	13	.......	1
	693	69.4	0.484960	-0.941651	0.000000	0.485000	0.000590	13	.......	1
	696	69.7	0.469952	-1.005862	0.000000	0.470000	0.000592	13	.......	1
	699	70	0.454992	-1.075118	0.000000	0.455000	0.000596	13	.......	1
	702	70.3	0.439923	-1.145868	0.000000	0.440000	0.000591	13	.......	1
	705	70.6	0.424984	-1.213377	0.000000	0.425000	0.000592	13	.......	1
	708	70.9	0.409907	-1.274456	0.000000	0.410000	0.000598	13	.......	1
	711	71.2	0.394970	-1.322792	0.000000	0.395000	0.000592	13	.......	1
	714	71.5	0.379950	-1.355775	0.000000	0.380000	0.000595	13	.......	1
	717	71.8	0.364968	-1.371903	0.000000	0.365000	0.000597	13	.......	1
	720	72.1	0.349883	-1.372369	0.000000	0.350000	0.000593	13	.......	1
	723	72.4	0.334971	-1.356230	0.000000	0.335000	0.000589	13	.......	1
	726	72.7	0.319935	-1.325679	0.000000	0.320000	0.000597	13	.......	1
	729	73	0.304984	-1.285195	0.000000	0.305000	0.000597	13	.......	1
	732	73.3	0.289952	-1.236579	0.000000	0.290000	0.000587	13	.......	1
	735	73.6	0.275015	-1.181857	0.000000	0.275000	0.000598	13	.......	1
	738	73.9	0.259950	-1.124560	0.000000	0.260000	0.000596	13	.......	1
	741	74.2	0.244874	-1.065556	0.000000	0.245000	0.000595	13	.......	1
	744	74.5	0.229908	-1.006372	0.000000	0.230000	0.000593	13	.......	1
	747	74.8	0.214975	-0.946912	0.000000	0.215000	0.000596	13	.......	1
	750	75.1	0.199932	-0.889194	0.000000	0.200000	0.000595	13	.......	1
	753	75.4	0.184957	-0.833876	0.000000	0.185000	0.000592	13	.......	1
	756	75.7	0.169920	-0.781652	0.000000	0.170000	0.000597	13	.......	1
	759	76	0.154969	-0.733055	0.000000	0.155000	0.000600	13	.......	1
	762	76.3	0.139910	-0.689855	0.000000	0.140000	0.000595	13	.......	1
	765	76.6	0.124922	-0.653749	0.000000	0.125000	0.000598	13	.......	1
	768	76.9	0.109908	-0.632194	0.000000	0.110000	0.000595	13	.......	1
	771	77.2	0.095043	-0.639937	0.000000	0.095000	0.000595	13	.......	1
	774	77.5	0.079957	-0.696878	0.000000	0.080000	0.000596	13	.......	1
	777	77.8	0.064995	-0.817542	0.000000	0.065000	0.000603	13	.......	1
	780	78.1	0.049961	-1.001743	0.000000	0.050000	0.000591	13	.......	1
	783	78.4	0.064961	-0.545367	0.000000	0.065000	0.000603	13	.......	1
	786	78.7	0.079918	-0.350397	0.000000	0.080000	0.000601	13	.......	1
	789	79	0.095002	-0.242511	0.000000	0.095000	0.000596	13	.......	1
	792	79.3	0.109872	-0.180304	0.000000	0.110000	0.000593	13	.......	1
	795	79.6	0.124877	-0.141090	0.000000	0.125000	0.000599	13	.......	1
	798	79.9	0.139871	-0.110672	0.000000	0.140000	0.000599	13	.......	1
	801	80.2	0.154896	-0.082311	0.000000	0.155000	0.000602	13	.......	1
	804	80.5	0.169871	-0.052599	0.000000	0.170000	0.000600	13	.......	1
	807	80.8	0.184886	-0.018763	0.000000	0.185000	0.000599	13	.......	1
	810	81.1	0.199878	0.021038	0.000000	0.200000	0.000594	13	.......	1
	813	81.4	0.214896	0.069055	0.000000	0.215000	0.000598	13	.......	1
	816	81.7	0.229851	0.127444	0.000000	0.230000	0.000592	13	.......	1
	819	82	0.244783	0.196105	0.000000	0.245000	0.000594	13	.......	1
	822	82.3	0.259884	0.272490	0.000000	0.260000	0.000596	13	.......	1
	825	82.6	0.274895	0.361017	0.000000	0.275000	0.000598	13	.......	1
	828	82.9	0.289868	0.468808	0.000000	0.290000	0.000592	13	.......	1
	831	83.2	0.304876	0.601457	0.000000	0.305000	0.000598	13	.......	1
	834	83.5	0.319843	0.766240	0.000000	0.320000	0.000602	13	.......	1
	837	83.8	0.334790	0.967741	0.000000	0.335000	0.000588	13	.......	1
	840	84.1	0.349799	1.212230	0.000000	0.350000	0.000595	13	.......	1
	843	84.4	0.364809	1.502454	0.000000	0.365000	0.000597	13	.......	1
	846	84.7	0.379858	1.841107	0.000000	0.380000	0.000587	13	.......	1
	849	85	0.394761	2.224005	0.000000	0.395000	0.000592	13	.......	1
	852	85.3	0.409746	2.641294	0.000000	0.410000	0.000595	13	.......	1
	855	85.6	0.424732	3.082809	0.000000	0.425000	0.000590	13	.......	1
	858	85.9	0.439744	3.519190	0.000000	0.440000	0.000591	13	.......	1
	861	86.2	0.454671	3.805315	0.000000	0.455000	0.000589	13	.......	1
	864	86.5	0.469749	3.880629	0.000000	0.470000	0.000590	13	.......	1
	867	86.8	0.484719	3.857767	0.000000	0.485000	0.000591	13	.......	1
	870	87.1	0.499721	3.806062	0.000000	0.500000	0.000596	13	.......	1
	873	87.4	0.514641	3.749286	0.000000	0.515000	0.000593	13	.......	1
	876	87.7	0.529662	3.697403	0.000000	0.530000	0.000592	13	.......	1
	879	88	0.544651	3.663425	0.000000	0.545000	0.000597	13	.......	1
	882	88.3	0.559680	3.658997	0.000000	0.560000	0.000595	13	.......	1
	885	88.6	0.574699	3.681675	0.000000	0.575000	0.000586	13	.......	1
	888	88.9	0.589683	3.726984	0.000000	0.590000	0.000592	13	.......	1
	891	89.2	0.604642	3.790076	0.000000	0.605000	0.000596	13	.......	1
	894	89.5	0.619699	3.866387	0.000000	0.620000	0.000589	13	.......	1
	897	89.8	0.634632	3.954051	0.000000	0.635000	0.000595	13	.......	1
	900	90.1	0.649647	4.050124	0.000000	0.650000	0.000598	13	.......	1
	903	90.4	0.664652	4.150834	0.000000	0.665000	0.000590	13	.......	1
	906	90.7	0.679673	4.254633	0.000000	0.680000	0.000594	13	.......	1
	909	91	0.694641	4.356814	0.000000	0.695000	0.000594	13	.......	1
	912	91.3	0.709679	4.455197	0.000000	0.710000	0.000597	13	.......	1
	915	91.6	0.724637	4.544083	0.000000	0.725000	0.000590	13	.......	1
	918	91.9	0.739655	4.624128	0.000000	0.740000	0.000599	13	.......	1
	921	92.2	0.754624	4.696068	0.000000	0.755000	0.000595	13	.......	1
	924	92.5	0.769614	4.756418	0.000000	0.770000	0.000597	13	.......	1
	927	92.8	0.784637	4.806945	0.000000	0.785000	0.000597	13	.......	1
	930	93.1	0.799613	4.847689	0.000000	0.800000	0.000599	13	.......	1
	933	93.4	0.814609	4.878486	0.000000	0.815000	0.000593	13	.......	1
	936	93.7	0.829643	4.898913	0.000000	0.830000	0.000599	13	.......	1
	939	94	0.844654	4.909728	0.000000	0.845000	0.000592	13	.......	1
	942	94.3	0.859637	4.914694	0.000000	0.860000	0.000588	13	.......	1
	945	94.6	0.874638	4.909370	0.000000	0.875000	0.000596	13	.......	1
	948	94.9	0.889651	4.898234	0.000000	0.890000	0.000598	13	.......	1
	951	95.2	0.904648	4.878165	0.000000	0.905000	0.000590	13	.......	1
	954	95.5	0.919656	4.853196	0.000000	0.920000	0.000591	13	.......	1
	957	95.8	0.934601	4.820553	0.000000	0.935000	0.000596	13	.......	1
	960	96.1	0.949580	4.784165	0.000000	0.950000	0.000592	13	.......	1
	963	96.4	0.964619	4.745176	0.000000	0.965000	0.000588	13	.......	1
	966	96.7	0.979651	4.703844	0.000000	0.980000	0.000596	13	.......	1
	969	97	0.994612	4.662097	0.000000	0.995000	0.000589	13	.......	1
	972	97.3	1.009625	4.625576	0.000000	1.010000	0.000588	13	.......	1
	975	97.6	1.024624	4.594874	0.000000	1.025000	0.000593	13	.......	1
	978	97.9	1.039595	4.576360	0.000000	1.040000	0.000593	13	.......	1
	981	98.2	1.054609	4.568134	0.000000	1.055000	0.000587	13	.......	1
	984	98.5	1.069575	4.573709	0.000000	1.070000	0.000598	13	.......	1
	987	98.8	1.084640	4.592686	0.000000	1.085000	0.000596	13	.......	1
	990	99.1	1.099683	4.624305	0.000000	1.100000	0.000587	13	.......	1
	993	99.4	1.114620	4.667766	0.000000	1.115000	0.000595	13	.......	1
	996	99.7	1.129580	4.715281	0.000000	1.130000	0.000596	13	.......	1
	999	100	1.144637	4.768959	0.000000	1.145000	0.000582	13	.......	1
	1002	100.3	1.159569	4.826245	0.000000	1.160000	0.000586	13	.......	1
	1005	100.6	1.174567	4.883383	0.000000	1.175000	0.000591	13	.......	1
	1008	100.9	1.189624	4.940737	0.000000	1.190000	0.000591	13	.......	1
	1011	101.2	1.204600	4.997013	0.000000	1.205000	0.000591	13	.......	1
	1014	101.5	1.219567	5.049244	0.000000	1.220000	0.000593	13	.......	1
	1017	101.8	1.234600	5.098623	0.000000	1.235000	0.000587	13	.......	1
	1020	102.1	1.249596	5.145401	0.000000	1.250000	0.000586	13	.......	1
	1023	102.4	1.264605	5.187533	0.000000	1.265000	0.000592	13	.......	1
	1026	102.7	1.279548	5.228743	0.000000	1.280000	0.000586	13	.......	1
	1029	103	1.294582	5.269964	0.000000	1.295000	0.000581	13	.......	1
	1032	103.3	1.309582	5.312119	0.000000	1.310000	0.000594	13	.......	1
	1035	103.6	1.324608	5.360896	0.000000	1.325000	0.000595	13	.......	1
	1038	103.9	1.339532	5.413213	0.000000	1.340000	0.000586	13	.......	1
	1041	104.2	1.344682	3.268303	0.000000	1.345000	0.000594	13	.......	2
	1044	104.5	1.329757	1.569350	0.000000	1.330000	0.000587	13	.......	2
	1047	104.8	1.314777	0.929892	0.000000	1.315000	0.000591	13	.......	2
	1050	105.1	1.299891	0.569316	0.000000	1.300000	0.000593	13	.......	2
	1053	105.4	1.284833	0.337146	0.000000	1.285000	0.000587	13	.......	2
	1056	105.7	1.269818	0.174342	0.000000	1.270000	0.000587	13	.......	2
	1059	106	1.254777	0.054784	0.000000	1.255000	0.000588	13	.......	2
	1062	106.3	1.239865	-0.035027	0.000000	1.240000	0.000588	13	.......	2
	1065	106.6	1.224812	-0.105599	0.000000	1.225000	0.000583	13	.......	2
	1068	106.9	1.209841	-0.159529	0.000000	1.210000	0.000592	13	.......	2
	1071	107.2	1.194809	-0.200292	0.000000	1.195000	0.000588	13	.......	2
	1074	107.5	1.179893	-0.228369	0.000000	1.180000	0.000591	13	.......	2
	1077	107.8	1.164806	-0.247308	0.000000	1.165000	0.000596	13	.......	2
	1080	108.1	1.149843	-0.255455	0.000000	1.150000	0.000594	13	.......	2
	1083	108.4	1.134835	-0.254500	0.000000	1.135000	0.000584	13	.......	2
	1086	108.7	1.119888	-0.246889	0.000000	1.120000	0.000595	13	.......	2
	1089	109	1.104830	-0.238962	0.000000	1.105000	0.000592	13	.......	2
	1092	109.3	1.089835	-0.217723	0.000000	1.090000	0.000588	13	.......	2
	1095	109.6	1.074771	-0.201182	0.000000	1.075000	0.000591	13	.......	2
	1098	109.9	1.059861	-0.184433	0.000000	1.060000	0.000593	13	.......	2
	1101	110.2	1.044838	-0.174181	0.000000	1.045000	0.000585	13	.......	2
	1104	110.5	1.029850	-0.171378	0.000000	1.030000	0.000588	13	.......	2
	1107	110.8	1.014805	-0.179039	0.000000	1.015000	0.000591	13	.......	2
	1110	111.1	0.999861	-0.196871	0.000000	1.000000	0.000592	13	.......	2
	1113	111.4	0.984870	-0.224788	0.000000	0.985000	0.000590	13	.......	2
	1116	111.7	0.969817	-0.260629	0.000000	0.970000	0.000591	13	.......	2
	1119	112	0.954810	-0.304628	0.000000	0.955000	0.000584	13	.......	2
	1122	112.3	0.939904	-0.351281	0.000000	0.940000	0.000584	13	.......	2
	1125	112.6	0.924820	-0.400237	0.000000	0.925000	0.000593	13	.......	2
	1128	112.9	0.909876	-0.448833	0.000000	0.910000	0.000596	13	.......	2
	1131	113.2	0.894974	-0.497749	0.000000	0.895000	0.000587	13	.......	2
	1134	113.5	0.879917	-0.549224	0.000000	0.880000	0.000596	13	.......	2
	1137	113.8	0.864868	-0.599165	0.000000	0.865000	0.000593	13	.......	2
	1140	114.1	0.849894	-0.647710	0.000000	0.850000	0.000587	13	.......	2
	1143	114.4	0.834906	-0.695416	0.000000	0.835000	0.000591	13	.......	2
	1146	114.7	0.819898	-0.740182	0.000000	0.820000	0.000593	13	.......	2
	1149	115	0.804889	-0.781459	0.000000	0.805000	0.000592	13	.......	2
	1152	115.3	0.789885	-0.817796	0.000000	0.790000	0.000586	13	.......	2
	1155	115.6	0.774926	-0.850093	0.000000	0.775000	0.000592	13	.......	2
	1158	115.9	0.759892	-0.875212	0.000000	0.760000	0.000590	13	.......	2
	1161	116.2	0.744860	-0.896245	0.000000	0.745000	0.000587	13	.......	2
	1164	116.5	0.729875	-0.908053	0.000000	0.730000	0.000594	13	.......	2
	1167	116.8	0.714951	-0.912804	0.000000	0.715000	0.000588	13	.......	2
	1170	117.1	0.699922	-0.909504	0.000000	0.700000	0.000587	13	.......	2
	1173	117.4	0.684889	-0.900370	0.000000	0.685000	0.000592	13	.......	2
	1176	117.7	0.669900	-0.884047	0.000000	0.670000	0.000590	13	.......	2
	1179	118	0.654863	-0.864476	0.000000	0.655000	0.000587	13	.......	2
	1182	118.3	0.639908	-0.842551	0.000000	0.640000	0.000591	13	.......	2
	1185	118.6	0.624902	-0.820181	0.000000	0.625000	0.000594	13	.......	2
	1188	118.9	0.609892	-0.800440	0.000000	0.610000	0.000586	13	.......	2
	1191	119.2	0.594898	-0.789326	0.000000	0.595000	0.000593	13	.......	2
	1194	119.5	0.579910	-0.784036	0.000000	0.580000	0.000592	13	.......	2
	1197	119.8	0.564889	-0.789832	0.000000	0.565000	0.000587	13	.......	2
	1200	120.1	0.549889	-0.807144	0.000000	0.550000	0.000591	13	.......	2
	1203	120.4	0.534940	-0.837891	0.000000	0.535000	0.000591	13	.......	2
	1206	120.7	0.519906	-0.878734	0.000000	0.520000	0.000589	13	.......	2
	1209	121	0.504947	-0.931611	0.000000	0.505000	0.000593	13	.......	2
	1212	121.3	0.489934	-0.993972	0.000000	0.490000	0.000593	13	.......	2
	1215	121.6	0.475003	-1.063197	0.000000	0.475000	0.000587	13	.......	2
	1218	121.9	0.459938	-1.135883	0.000000	0.460000	0.000585	13	.......	2
	1221	122.2	0.444941	-1.207933	0.000000	0.445000	0.000593	13	.......	2
	1224	122.5	0.429912	-1.274811	0.000000	0.430000	0.000588	13	.......	2
	1227	122.8	0.415003	-1.331648	0.000000	0.415000	0.000587	13	.......	2
	1230	123.1	0.399907	-1.374914	0.000000	0.400000	0.000596	13	.......	2
	1233	123.4	0.384948	-1.404060	0.000000	0.385000	0.000595	13	.......	2
	1236	123.7	0.369964	-1.414710	0.000000	0.370000	0.000588	13	.......	2
	1239	124	0.354947	-1.409391	0.000000	0.355000	0.000589	13	.......	2
	1242	124.3	0.339912	-1.389217	0.000000	0.340000	0.000592	13	.......	2
	1245	124.6	0.324930	-1.357408	0.000000	0.325000	0.000585	13	.......	2
	1248	124.9	0.309899	-1.315357	0.000000	0.310000	0.000586	13	.......	2
	1251	125.2	0.295001	-1.265077	0.000000	0.295000	0.000595	13	.......	2
	1254	125.5	0.279960	-1.209971	0.000000	0.280000	0.000589	13	.......	2
	1257	125.8	0.264989	-1.151868	0.000000	0.265000	0.000587	13	.......	2
	1260	126.1	0.249902	-1.093303	0.000000	0.250000	0.000593	13	.......	2
	1263	126.4	0.234952	-1.034892	0.000000	0.235000	0.000590	13	.......	2
	1266	126.7	0.219943	-0.976824	0.000000	0.220000	0.000590	13	.......	2
	1269	127	0.204939	-0.920490	0.000000	0.205000	0.000595	13	.......	2
	1272	127.3	0.189935	-0.865347	0.000000	0.190000	0.000595	13	.......	2
	1275	127.6	0.175047	-0.812908	0.000000	0.175000	0.000587	13	.......	2
	1278	127.9	0.159937	-0.763388	0.000000	0.160000	0.000593	13	.......	2
	1281	128.2	0.144913	-0.717991	0.000000	0.145000	0.000591	13	.......	2
	1284	128.5	0.129902	-0.679107	0.000000	0.130000	0.000584	13	.......	2
	1287	128.8	0.114944	-0.651061	0.000000	0.115000	0.000597	13	.......	2
	1290	129.1	0.099955	-0.645547	0.000000	0.100000	0.000591	13	.......	2
	1293	129.4	0.084995	-0.679790	0.000000	0.085000	0.000584	13	.......	2
	1296	129.7	0.069945	-0.770749	0.000000	0.070000	0.000589	13	.......	2
	1299	130	0.055065	-0.924454	0.000000	0.055000	0.000594	13	.......	2
	1302	130.3	0.059966	-0.630007	0.000000	0.060000	0.000591	13	.......	2
	1305	130.6	0.075022	-0.391483	0.000000	0.075000	0.000586	13	.......	2
	1308	130.9	0.089867	-0.258185	0.000000	0.090000	0.000596	13	.......	2
	1311	131.2	0.104904	-0.180415	0.000000	0.105000	0.000588	13	.......	2
	1314	131.5	0.119892	-0.131224	0.000000	0.120000	0.000588	13	.......	2
	1317	131.8	0.134883	-0.093888	0.000000	0.135000	0.000593	13	.......	2
	1320	132.1	0.149835	-0.061356	0.000000	0.150000	0.000589	13	.......	2
	1323	132.4	0.164909	-0.028438	0.000000	0.165000	0.000589	13	.......	2
	1326	132.7	0.179880	0.007320	0.000000	0.180000	0.000592	13	.......	2
	1329	133	0.194866	0.048653	0.000000	0.195000	0.000591	13	.......	2
	1332	133.3	0.209875	0.096871	0.000000	0.210000	0.000588	13	.......	2
	1335	133.6	0.224893	0.155379	0.000000	0.225000	0.000596	13	.......	2
	1338	133.9	0.239858	0.223884	0.000000	0.240000	0.000591	13	.......	2
	1341	134.2	0.254881	0.300849	0.000000	0.255000	0.000587	13	.......	2
	1344	134.5	0.269842	0.387911	0.000000	0.270000	0.000595	13	.......	2
	1347	134.8	0.284851	0.490929	0.000000	0.285000	0.000593	13	.......	2
	1350	135.1	0.299875	0.616707	0.000000	0.300000	0.000585	13	.......	2
	1353	135.4	0.314827	0.771899	0.000000	0.315000	0.000589	13	.......	2
	1356	135.7	0.329821	0.962127	0.000000	0.330000	0.000594	13	.......	2
	1359	136	0.344796	1.193095	0.000000	0.345000	0.000590	13	.......	2
	1362	136.3	0.359831	1.469633	0.000000	0.360000	0.000593	13	.......	2
	1365	136.6	0.374799	1.794770	0.000000	0.375000	0.000594	13	.......	2
	1368	136.9	0.389785	2.167842	0.000000	0.390000	0.000590	13	.......	2
	1371	137.2	0.404733	2.580048	0.000000	0.405000	0.000587	13	.......	2
	1374	137.5	0.419781	3.015334	0.000000	0.420000	0.000593	13	.......	2
	1377	137.8	0.434684	3.459686	0.000000	0.435000	0.000592	13	.......	2
	1380	138.1	0.449645	3.797337	0.000000	0.450000	0.000589	13	.......	2
	1383	138.4	0.464716	3.902863	0.000000	0.465000	0.000594	13	.......	2
	1386	138.7	0.479782	3.872206	0.000000	0.480000	0.000594	13	.......	2
	1389	139	0.494712	3.798492	0.000000	0.495000	0.000585	13	.......	2
	1392	139.3	0.509724	3.717978	0.000000	0.510000	0.000595	13	.......	2
	1395	139.6	0.524674	3.652805	0.000000	0.525000	0.000592	13	.......	2
	1398	139.9	0.539700	3.611808	0.000000	0.540000	0.000587	13	.......	2
	1401	140.2	0.554627	3.602654	0.000000	0.555000	0.000590	13	.......	2
	1404	140.5	0.569707	3.621626	0.000000	0.570000	0.000593	13	.......	2
	1407	140.8	0.584690	3.663329	0.000000	0.585000	0.000585	13	.......	2
	1410	141.1	0.599707	3.724048	0.000000	0.600000	0.000587	13	.......	2
	1413	141.4	0.614640	3.797748	0.000000	0.615000	0.000590	13	.......	2
	1416	141.7	0.629684	3.883493	0.000000	0.630000	0.000590	13	.......	2
	1419	142	0.644649	3.976603	0.000000	0.645000	0.000586	13	.......	2
	1422	142.3	0.659677	4.075828	0.000000	0.660000	0.000595	13	.......	2
	1425	142.6	0.674662	4.177541	0.000000	0.675000	0.000588	13	.......	2
	1428	142.9	0.689666	4.279116	0.000000	0.690000	0.000588	13	.......	2
	1431	143.2	0.704634	4.378751	0.000000	0.705000	0.000596	13	.......	2
	1434	143.5	0.719627	4.469874	0.000000	0.720000	0.000593	13	.......	2
	1437	143.8	0.734617	4.552917	0.000000	0.735000	0.000587	13	.......	2
	1440	144.1	0.749609	4.626420	0.000000	0.750000	0.000595	13	.......	2
	1443	144.4	0.764625	4.689101	0.000000	0.765000	0.000594	13	.......	2
	1446	144.7	0.779664	4.742101	0.000000	0.780000	0.000588	13	.......	2
	1449	145	0.794596	4.784303	0.000000	0.795000	0.000594	13	.......	2
	1452	145.3	0.809561	4.817947	0.000000	0.810000	0.000594	13	.......	2
	1455	145.6	0.824645	4.840802	0.000000	0.825000	0.000586	13	.......	2
	1458	145.9	0.839691	4.854909	0.000000	0.840000	0.000583	13	.......	2
	1461	146.2	0.854634	4.861378	0.000000	0.855000	0.000587	13	.......	2
	1464	146.5	0.869641	4.858033	0.000000	0.870000	0.000587	13	.......	2
	1467	146.8	0.884641	4.848956	0.000000	0.885000	0.000587	13	.......	2
	1470	147.1	0.899680	4.832062	0.000000	0.900000	0.000592	13	.......	2
	1473	147.4	0.914612	4.808822	0.000000	0.915000	0.000586	13	.......	2
	1476	147.7	0.929606	4.780063	0.000000	0.930000	0.000589	13	.......	2
	1479	148	0.944640	4.744567	0.000000	0.945000	0.000594	13	.......	2
	1482	148.3	0.959592	4.708117	0.000000	0.960000	0.000596	13	.......	2
	1485	148.6	0.974619	4.667128	0.000000	0.975000	0.000591	13	.......	2
	1488	148.9	0.989630	4.626359	0.000000	0.990000	0.000597	13	.......	2
	1491	149.2	1.004626	4.589000	0.000000	1.005000	0.000592	13	.......	2
	1494	149.5	1.019645	4.555823	0.000000	1.020000	0.000586	13	.......	2
	1497	149.8	1.034621	4.533436	0.000000	1.035000	0.000595	13	.......	2
	1500	150.1	1.049606	4.523502	0.000000	1.050000	0.000592	13	.......	2
	1503	150.4	1.064627	4.526047	0.000000	1.065000	0.000589	13	.......	2
	1506	150.7	1.079641	4.541888	0.000000	1.080000	0.000592	13	.......	2
	1509	151	1.094621	4.569639	0.000000	1.095000	0.000592	13	.......	2
	1512	151.3	1.109651	4.613630	0.000000	1.110000	0.000593	13	.......	2
	1515	151.6	1.124642	4.657069	0.000000	1.125000	0.000590	13	.......	2
	1518	151.9	1.139536	4.709162	0.000000	1.140000	0.000594	13	.......	2
	1521	152.2	1.154584	4.768149	0.000000	1.155000	0.000591	13	.......	2
	1524	152.5	1.169529	4.827670	0.000000	1.170000	0.000588	13	.......	2
	1527	152.8	1.184624	4.886155	0.000000	1.185000	0.000596	13	.......	2
	1530	153.1	1.199595	4.944558	0.000000	1.200000	0.000590	13	.......	2
	1533	153.4	1.214604	4.999880	0.000000	1.215000	0.000587	13	.......	2
	1536	153.7	1.229566	5.051693	0.000000	1.230000	0.000594	13	.......	2
	1539	154	1.244624	5.101269	0.000000	1.245000	0.000592	13	.......	2
	1542	154.3	1.259580	5.146838	0.000000	1.260000	0.000587	13	.......	2
	1545	154.6	1.274583	5.191501	0.000000	1.275000	0.000591	13	.......	2
	1548	154.9	1.289619	5.235068	0.000000	1.290000	0.000593	13	.......	2
	1551	155.2	1.304642	5.275527	0.000000	1.305000	0.000584	13	.......	2
	1554	155.5	1.319499	5.321255	0.000000	1.320000	0.000590	13	.......	2
	1557	155.8	1.334546	5.372094	0.000000	1.335000	0.000593	13	.......	2
	1559	156	1.344557	5.410115	0.000000	1.345000	0.000600	13	.......	2