File: LSTM/50um/1079714-2/G21-9800-CV-01 Plot-cv data-240622 055309.DTA
EXPLAIN
TAG	CV
TITLE	LABEL	Cyclic Voltammetry	Test &Identifier
DATE	LABEL	2024-06-22	Date
TIME	LABEL	5:53:09 AM	Time
NOTES	NOTES	1	&Notes...
	GI-CV	FCATS v19.0.1f5
PSTAT	PSTAT	REF3000-42167	Potentiostat
VINIT	POTEN	1.350000E+0	F	Initial &E (V)
VLIMIT1	POTEN	1.350000E+0	F	Scan Limit &1 (V)
VLIMIT2	POTEN	5.000000E-2	F	Scan Limit &2 (V)
VFINAL	POTEN	1.350000E+0	F	Final &E (V)
SCANRATE	QUANT	5.000000E-2	&Scan Rate (V/s)
STEPSIZE	QUANT	2	St&ep Size (V)
CYCLES	IQUANT	3	C&ycles (#)
IMODE	SELECTOR	1	I/E Range &Mode
IRANGE	QUANT	NaN	&Max Current (mA)
AREA	QUANT	5.000000E+1	Electrode &Area (cm^2)
ELECTRODETYPE	SELECTOR	0	Electrode Type
STRIPPING	TOGGLE	F	Used for Stripping
POLARITY	TOGGLE	F	Signal Polarity
CONDIT	TWOPARAM	F	0.00000E+000	0.00000E+000	Conditionin&g	Time(s)	E(V)
DELAY	TWOPARAM	0	0.000000E+0	0.00000E+000	Init. De&lay	Time(s)	Stab.(mV/s)
EQDELAY	QUANT	0.000000E+0	Equil. &Time (s)
IRCOMP	SELECTOR	0	IRCom&p
PFCOR	QUANT	0.00000E+000	PF Corr. (ohm)
SAMPLINGMODE	SELECTOR	Surface	Sampling &Mode
EOC	QUANT	0	Open Circuit (V)
PSTATMODEL	IQUANT	6.000000E+0	Pstat Model
PSTATSECTION	LABEL	REF3000-42167	Pstat Section
PSTATSERIALNO	LABEL	42167	Pstat Serial Number
CTRLMODE	IQUANT	0	Control Mode
IESTAB	IQUANT	2	I/E Stability
CASPEED	IQUANT	2	Control Amp Speed
CONVENTION	IQUANT	1	Current Convention
ICHRANGE	IQUANT	2	Ich Range
ICHRANGEMODE	TOGGLE	F	Ich Auto Range
ICHOFFSETENABLE	TOGGLE	F	Ich Offset Enable
ICHOFFSET	QUANT	0	Ich Offset (V)
ICHFILTER	IQUANT	3	Ich Filter
VCHRANGE	IQUANT	2	Vch Range
VCHRANGEMODE	TOGGLE	F	Vch Auto Range
VCHOFFSETENABLE	TOGGLE	F	Vch Offset Enable
VCHOFFSET	QUANT	0	Vch Offset (V)
VCHFILTER	IQUANT	3	Vch Filter
ACHRANGE	IQUANT	2	Ach Range
ACHOFFSETENABLE	TOGGLE	F	Ach Offset Enable
ACHOFFSET	QUANT	0	Ach Offset (V)
ACHFILTER	IQUANT	1	Ach Filter
IERANGELOWERLIMIT	IQUANT	2	I/E Range Lower Limit
IERANGEMODE	TOGGLE	F	I/E AutoRange
IERANGE	IQUANT	9	I/E Range
POSFEEDENABLE	TOGGLE	F	Positive Feedback IR Comp
POSFEEDRESISTANCE	QUANT	0	Positive Feedback Resistance (ohm)
ACHSELECT	IQUANT	0	Ach Select
CABLEID	IQUANT	14	Cable ID
DCCALDATE	LABEL	N/A	DC Calibration Date
ACCALDATE	LABEL	N/A	AC Calibration Date
THERMOSELECT	IQUANT	1	Thermo Select
FRAMEWORKVERSION	QUANT	7.8.2.7430	Framework Version
INSTRUMENTVERSION	LABEL	2.31	Instrument Version
COMPLIANCEVOLTAGE	IQUANT	0	Compliance Voltage
CURVE1	TABLE
	Pt	T	Vf	Im	Vu	Sig	Ach	IERange	Over	Cycle
	#	s	V vs. Ref.	A	V	V	V	#	bits	#
	0	0.100000	1.349749	1.629065	0.000000	1.350000	0.001699	13	.......	0
	3	0.400000	1.334733	0.854573	0.000000	1.335000	0.000607	13	.......	0
	6	0.700000	1.319820	0.768033	0.000000	1.320000	0.000605	13	.......	0
	9	1.000000	1.304838	0.726436	0.000000	1.305000	0.000608	13	.......	0
	12	1.300000	1.289837	0.699579	0.000000	1.290000	0.000609	13	.......	0
	15	1.600000	1.274751	0.678886	0.000000	1.275000	0.000607	13	.......	0
	18	1.900000	1.259837	0.661360	0.000000	1.260000	0.000610	13	.......	0
	21	2.200000	1.244777	0.646039	0.000000	1.245000	0.000613	13	.......	0
	24	2.500000	1.229822	0.632832	0.000000	1.230000	0.000609	13	.......	0
	27	2.800000	1.214813	0.622633	0.000000	1.215000	0.000607	13	.......	0
	30	3.100000	1.199868	0.614534	0.000000	1.200000	0.000610	13	.......	0
	33	3.400000	1.184822	0.609041	0.000000	1.185000	0.000611	13	.......	0
	36	3.700000	1.169745	0.605299	0.000000	1.170000	0.000606	13	.......	0
	39	4.000000	1.154744	0.603824	0.000000	1.155000	0.000605	13	.......	0
	42	4.300000	1.139818	0.604941	0.000000	1.140000	0.000610	13	.......	0
	45	4.600000	1.124824	0.607710	0.000000	1.125000	0.000608	13	.......	0
	48	4.900000	1.109867	0.612711	0.000000	1.110000	0.000604	13	.......	0
	51	5.200000	1.094828	0.617239	0.000000	1.095000	0.000611	13	.......	0
	54	5.500000	1.079865	0.622128	0.000000	1.080000	0.000607	13	.......	0
	57	5.800000	1.064761	0.625845	0.000000	1.065000	0.000605	13	.......	0
	60	6.100000	1.049791	0.627796	0.000000	1.050000	0.000609	13	.......	0
	63	6.400000	1.034807	0.626929	0.000000	1.035000	0.000603	13	.......	0
	66	6.700000	1.019871	0.624417	0.000000	1.020000	0.000606	13	.......	0
	69	7.000000	1.004807	0.619345	0.000000	1.005000	0.000611	13	.......	0
	72	7.300000	0.989856	0.612355	0.000000	0.990000	0.000608	13	.......	0
	75	7.600000	0.974824	0.603811	0.000000	0.975000	0.000604	13	.......	0
	78	7.900000	0.959832	0.595539	0.000000	0.960000	0.000609	13	.......	0
	81	8.200000	0.944811	0.586509	0.000000	0.945000	0.000612	13	.......	0
	84	8.500000	0.929814	0.579538	0.000000	0.930000	0.000609	13	.......	0
	87	8.800000	0.914817	0.571552	0.000000	0.915000	0.000608	13	.......	0
	90	9.100000	0.899891	0.568024	0.000000	0.900000	0.000610	13	.......	0
	93	9.400001	0.884835	0.564860	0.000000	0.885000	0.000609	13	.......	0
	96	9.700000	0.869851	0.564142	0.000000	0.870000	0.000607	13	.......	0
	99	10	0.854849	0.561922	0.000000	0.855000	0.000610	13	.......	0
	102	10.3	0.839901	0.557852	0.000000	0.840000	0.000606	13	.......	0
	105	10.6	0.824856	0.553771	0.000000	0.825000	0.000608	13	.......	0
	108	10.9	0.809794	0.550811	0.000000	0.810000	0.000610	13	.......	0
	111	11.2	0.794781	0.546876	0.000000	0.795000	0.000612	13	.......	0
	114	11.5	0.779883	0.545523	0.000000	0.780000	0.000607	13	.......	0
	117	11.8	0.764793	0.543878	0.000000	0.765000	0.000611	13	.......	0
	120	12.1	0.749847	0.543265	0.000000	0.750000	0.000610	13	.......	0
	123	12.4	0.734819	0.542762	0.000000	0.735000	0.000607	13	.......	0
	126	12.7	0.719862	0.542080	0.000000	0.720000	0.000611	13	.......	0
	129	13	0.704801	0.541458	0.000000	0.705000	0.000610	13	.......	0
	132	13.3	0.689850	0.539692	0.000000	0.690000	0.000606	13	.......	0
	135	13.6	0.674866	0.538692	0.000000	0.675000	0.000606	13	.......	0
	138	13.9	0.659872	0.535367	0.000000	0.660000	0.000612	13	.......	0
	141	14.2	0.644815	0.526801	0.000000	0.645000	0.000605	13	.......	0
	144	14.5	0.629848	0.513086	0.000000	0.630000	0.000603	13	.......	0
	147	14.8	0.614808	0.490809	0.000000	0.615000	0.000604	13	.......	0
	150	15.1	0.599878	0.459160	0.000000	0.600000	0.000602	13	.......	0
	153	15.4	0.584879	0.414527	0.000000	0.585000	0.000607	13	.......	0
	156	15.7	0.569872	0.356420	0.000000	0.570000	0.000610	13	.......	0
	159	16	0.554789	0.281559	0.000000	0.555000	0.000605	13	.......	0
	162	16.3	0.539876	0.188286	0.000000	0.540000	0.000607	13	.......	0
	165	16.6	0.524867	0.074911	0.000000	0.525000	0.000609	13	.......	0
	168	16.9	0.509891	-0.058100	0.000000	0.510000	0.000608	13	.......	0
	171	17.2	0.494950	-0.211107	0.000000	0.495000	0.000606	13	.......	0
	174	17.5	0.479937	-0.384677	0.000000	0.480000	0.000606	13	.......	0
	177	17.8	0.464985	-0.574858	0.000000	0.465000	0.000610	13	.......	0
	180	18.1	0.449883	-0.775555	0.000000	0.450000	0.000602	13	.......	0
	183	18.4	0.435006	-0.980128	0.000000	0.435000	0.000608	13	.......	0
	186	18.7	0.419963	-1.175709	0.000000	0.420000	0.000605	13	.......	0
	189	19	0.404944	-1.351514	0.000000	0.405000	0.000601	13	.......	0
	192	19.3	0.389943	-1.496713	0.000000	0.390000	0.000606	13	.......	0
	195	19.6	0.375058	-1.600980	0.000000	0.375000	0.000607	13	.......	0
	198	19.9	0.359954	-1.663512	0.000000	0.360000	0.000601	13	.......	0
	201	20.2	0.344990	-1.685716	0.000000	0.345000	0.000605	13	.......	0
	204	20.5	0.329964	-1.677057	0.000000	0.330000	0.000608	13	.......	0
	207	20.8	0.315001	-1.643689	0.000000	0.315000	0.000600	13	.......	0
	210	21.1	0.299997	-1.596462	0.000000	0.300000	0.000606	13	.......	0
	213	21.4	0.284981	-1.552125	0.000000	0.285000	0.000607	13	.......	0
	216	21.7	0.269928	-1.527502	0.000000	0.270000	0.000604	13	.......	0
	219	22	0.255033	-1.531004	0.000000	0.255000	0.000604	13	.......	0
	222	22.3	0.239965	-1.548511	0.000000	0.240000	0.000609	13	.......	0
	225	22.6	0.225008	-1.557943	0.000000	0.225000	0.000609	13	.......	0
	228	22.9	0.209975	-1.544439	0.000000	0.210000	0.000602	13	.......	0
	231	23.2	0.195028	-1.520798	0.000000	0.195000	0.000609	13	.......	0
	234	23.5	0.179958	-1.505761	0.000000	0.180000	0.000608	13	.......	0
	237	23.8	0.165014	-1.503742	0.000000	0.165000	0.000606	13	.......	0
	240	24.1	0.149924	-1.507161	0.000000	0.150000	0.000602	13	.......	0
	243	24.4	0.134998	-1.503057	0.000000	0.135000	0.000606	13	.......	0
	246	24.7	0.119967	-1.485868	0.000000	0.120000	0.000602	13	.......	0
	249	25	0.104999	-1.463625	0.000000	0.105000	0.000604	13	.......	0
	252	25.3	0.089946	-1.450927	0.000000	0.090000	0.000606	13	.......	0
	255	25.6	0.075082	-1.453468	0.000000	0.075000	0.000602	13	.......	0
	258	25.9	0.060057	-1.464318	0.000000	0.060000	0.000605	13	.......	0
	261	26.2	0.055030	-0.721240	0.000000	0.055000	0.000605	13	.......	0
	264	26.5	0.069919	-0.036963	0.000000	0.070000	0.000605	13	.......	0
	267	26.8	0.084931	0.381290	0.000000	0.085000	0.000605	13	.......	0
	270	27.1	0.099897	0.709345	0.000000	0.100000	0.000607	13	.......	0
	273	27.4	0.114868	0.988302	0.000000	0.115000	0.000605	13	.......	0
	276	27.7	0.129813	1.239093	0.000000	0.130000	0.000604	13	.......	0
	279	28	0.144812	1.471802	0.000000	0.145000	0.000610	13	.......	0
	282	28.3	0.159854	1.686519	0.000000	0.160000	0.000607	13	.......	0
	285	28.6	0.174889	1.874259	0.000000	0.175000	0.000604	13	.......	0
	288	28.9	0.189833	2.032777	0.000000	0.190000	0.000608	13	.......	0
	291	29.2	0.204795	2.175237	0.000000	0.205000	0.000611	13	.......	0
	294	29.5	0.219845	2.328792	0.000000	0.220000	0.000607	13	.......	0
	297	29.8	0.234744	2.518488	0.000000	0.235000	0.000609	13	.......	0
	300	30.1	0.249728	2.745887	0.000000	0.250000	0.000613	13	.......	0
	303	30.4	0.264798	2.933952	0.000000	0.265000	0.000605	13	.......	0
	306	30.7	0.279829	2.907257	0.000000	0.280000	0.000604	13	.......	0
	309	31	0.294728	2.728146	0.000000	0.295000	0.000607	13	.......	0
	312	31.3	0.309775	2.584815	0.000000	0.310000	0.000603	13	.......	0
	315	31.6	0.324751	2.518653	0.000000	0.325000	0.000605	13	.......	0
	318	31.9	0.339786	2.503000	0.000000	0.340000	0.000611	13	.......	0
	321	32.2	0.354708	2.460828	0.000000	0.355000	0.000606	13	.......	0
	324	32.5	0.369807	2.401866	0.000000	0.370000	0.000606	13	.......	0
	327	32.8	0.384755	2.367011	0.000000	0.385000	0.000611	13	.......	0
	330	33.1	0.399806	2.357055	0.000000	0.400000	0.000612	13	.......	0
	333	33.4	0.414786	2.363451	0.000000	0.415000	0.000607	13	.......	0
	336	33.7	0.429796	2.379848	0.000000	0.430000	0.000609	13	.......	0
	339	34	0.444765	2.402349	0.000000	0.445000	0.000608	13	.......	0
	342	34.3	0.459823	2.428531	0.000000	0.460000	0.000602	13	.......	0
	345	34.6	0.474746	2.457438	0.000000	0.475000	0.000604	13	.......	0
	348	34.9	0.489780	2.487402	0.000000	0.490000	0.000604	13	.......	0
	351	35.2	0.504762	2.518348	0.000000	0.505000	0.000604	13	.......	0
	354	35.5	0.519770	2.550784	0.000000	0.520000	0.000602	13	.......	0
	357	35.8	0.534725	2.583731	0.000000	0.535000	0.000607	13	.......	0
	360	36.1	0.549753	2.620436	0.000000	0.550000	0.000607	13	.......	0
	363	36.4	0.564713	2.659558	0.000000	0.565000	0.000606	13	.......	0
	366	36.7	0.579811	2.702886	0.000000	0.580000	0.000609	13	.......	0
	369	37	0.594710	2.750393	0.000000	0.595000	0.000605	13	.......	0
	372	37.3	0.609706	2.802210	0.000000	0.610000	0.000602	13	.......	0
	375	37.6	0.624722	2.858058	0.000000	0.625000	0.000609	13	.......	0
	378	37.9	0.639767	2.917804	0.000000	0.640000	0.000613	13	.......	0
	381	38.2	0.654649	2.979766	0.000000	0.655000	0.000606	13	.......	0
	384	38.5	0.669765	3.042838	0.000000	0.670000	0.000613	13	.......	0
	387	38.8	0.684709	3.106121	0.000000	0.685000	0.000614	13	.......	0
	390	39.1	0.699774	3.171016	0.000000	0.700000	0.000608	13	.......	0
	393	39.4	0.714691	3.227768	0.000000	0.715000	0.000607	13	.......	0
	396	39.7	0.729698	3.284649	0.000000	0.730000	0.000610	13	.......	0
	399	40	0.744665	3.337172	0.000000	0.745000	0.000605	13	.......	0
	402	40.3	0.759696	3.385228	0.000000	0.760000	0.000604	13	.......	0
	405	40.6	0.774704	3.426582	0.000000	0.775000	0.000607	13	.......	0
	408	40.9	0.789737	3.460640	0.000000	0.790000	0.000607	13	.......	0
	411	41.2	0.804690	3.489554	0.000000	0.805000	0.000604	13	.......	0
	414	41.5	0.819717	3.512356	0.000000	0.820000	0.000607	13	.......	0
	417	41.8	0.834660	3.529558	0.000000	0.835000	0.000603	13	.......	0
	420	42.1	0.849687	3.541904	0.000000	0.850000	0.000606	13	.......	0
	423	42.4	0.864672	3.549442	0.000000	0.865000	0.000607	13	.......	0
	426	42.7	0.879763	3.555129	0.000000	0.880000	0.000609	13	.......	0
	429	43	0.894725	3.557102	0.000000	0.895000	0.000603	13	.......	0
	432	43.3	0.909714	3.557283	0.000000	0.910000	0.000607	13	.......	0
	435	43.6	0.924656	3.556007	0.000000	0.925000	0.000607	13	.......	0
	438	43.9	0.939723	3.551927	0.000000	0.940000	0.000601	13	.......	0
	441	44.2	0.954645	3.547586	0.000000	0.955000	0.000605	13	.......	0
	444	44.5	0.969629	3.542101	0.000000	0.970000	0.000608	13	.......	0
	447	44.8	0.984683	3.536945	0.000000	0.985000	0.000604	13	.......	0
	450	45.1	0.999657	3.534256	0.000000	1.000000	0.000608	13	.......	0
	453	45.4	1.014622	3.534517	0.000000	1.015000	0.000610	13	.......	0
	456	45.7	1.029673	3.539001	0.000000	1.030000	0.000603	13	.......	0
	459	46	1.044675	3.548625	0.000000	1.045000	0.000602	13	.......	0
	462	46.3	1.059667	3.564250	0.000000	1.060000	0.000609	13	.......	0
	465	46.6	1.074632	3.587102	0.000000	1.075000	0.000605	13	.......	0
	468	46.9	1.089633	3.618016	0.000000	1.090000	0.000606	13	.......	0
	471	47.2	1.104656	3.656170	0.000000	1.105000	0.000611	13	.......	0
	474	47.5	1.119715	3.701884	0.000000	1.120000	0.000607	13	.......	0
	477	47.8	1.134645	3.751145	0.000000	1.135000	0.000600	13	.......	0
	480	48.1	1.149659	3.804511	0.000000	1.150000	0.000609	13	.......	0
	483	48.4	1.164636	3.863740	0.000000	1.165000	0.000606	13	.......	0
	486	48.7	1.179690	3.923137	0.000000	1.180000	0.000603	13	.......	0
	489	49	1.194634	3.985810	0.000000	1.195000	0.000604	13	.......	0
	492	49.3	1.209631	4.049306	0.000000	1.210000	0.000608	13	.......	0
	495	49.6	1.224645	4.111617	0.000000	1.225000	0.000602	13	.......	0
	498	49.9	1.239648	4.173582	0.000000	1.240000	0.000605	13	.......	0
	501	50.2	1.254617	4.233153	0.000000	1.255000	0.000604	13	.......	0
	504	50.5	1.269624	4.292563	0.000000	1.270000	0.000606	13	.......	0
	507	50.8	1.284655	4.346160	0.000000	1.285000	0.000601	13	.......	0
	510	51.1	1.299697	4.396905	0.000000	1.300000	0.000605	13	.......	0
	513	51.4	1.314630	4.444050	0.000000	1.315000	0.000601	13	.......	0
	516	51.7	1.329604	4.490588	0.000000	1.330000	0.000603	13	.......	0
	519	52	1.344596	4.536245	0.000000	1.345000	0.000606	13	.......	0
	522	52.3	1.339685	2.860408	0.000000	1.340000	0.000600	13	.......	1
	525	52.6	1.324721	2.106779	0.000000	1.325000	0.000609	13	.......	1
	528	52.9	1.309801	1.693443	0.000000	1.310000	0.000608	13	.......	1
	531	53.2	1.294761	1.439375	0.000000	1.295000	0.000603	13	.......	1
	534	53.5	1.279817	1.272906	0.000000	1.280000	0.000606	13	.......	1
	537	53.8	1.264773	1.158405	0.000000	1.265000	0.000610	13	.......	1
	540	54.1	1.249784	1.076514	0.000000	1.250000	0.000606	13	.......	1
	543	54.4	1.234771	1.014955	0.000000	1.235000	0.000603	13	.......	1
	546	54.7	1.219844	0.968500	0.000000	1.220000	0.000607	13	.......	1
	549	55	1.204750	0.932383	0.000000	1.205000	0.000602	13	.......	1
	552	55.3	1.189848	0.905127	0.000000	1.190000	0.000603	13	.......	1
	555	55.6	1.174747	0.884457	0.000000	1.175000	0.000608	13	.......	1
	558	55.9	1.159803	0.869578	0.000000	1.160000	0.000601	13	.......	1
	561	56.2	1.144781	0.858185	0.000000	1.145000	0.000604	13	.......	1
	564	56.5	1.129776	0.849277	0.000000	1.130000	0.000609	13	.......	1
	567	56.8	1.114737	0.843237	0.000000	1.115000	0.000603	13	.......	1
	570	57.1	1.099878	0.837153	0.000000	1.100000	0.000606	13	.......	1
	573	57.4	1.084815	0.831949	0.000000	1.085000	0.000611	13	.......	1
	576	57.7	1.069809	0.827993	0.000000	1.070000	0.000606	13	.......	1
	579	58	1.054772	0.820522	0.000000	1.055000	0.000603	13	.......	1
	582	58.3	1.039847	0.811961	0.000000	1.040000	0.000609	13	.......	1
	585	58.6	1.024767	0.800679	0.000000	1.025000	0.000607	13	.......	1
	588	58.9	1.009819	0.787669	0.000000	1.010000	0.000605	13	.......	1
	591	59.2	0.994784	0.771883	0.000000	0.995000	0.000606	13	.......	1
	594	59.5	0.979859	0.754835	0.000000	0.980000	0.000610	13	.......	1
	597	59.8	0.964755	0.735842	0.000000	0.965000	0.000605	13	.......	1
	600	60.1	0.949812	0.716202	0.000000	0.950000	0.000605	13	.......	1
	603	60.4	0.934731	0.696411	0.000000	0.935000	0.000608	13	.......	1
	606	60.7	0.919882	0.677343	0.000000	0.920000	0.000606	13	.......	1
	609	61	0.904847	0.658481	0.000000	0.905000	0.000603	13	.......	1
	612	61.3	0.889849	0.640170	0.000000	0.890000	0.000610	13	.......	1
	615	61.6	0.874865	0.621209	0.000000	0.875000	0.000606	13	.......	1
	618	61.9	0.859884	0.602435	0.000000	0.860000	0.000604	13	.......	1
	621	62.2	0.844857	0.583137	0.000000	0.845000	0.000610	13	.......	1
	624	62.5	0.829874	0.563962	0.000000	0.830000	0.000607	13	.......	1
	627	62.8	0.814833	0.545036	0.000000	0.815000	0.000604	13	.......	1
	630	63.1	0.799866	0.524777	0.000000	0.800000	0.000609	13	.......	1
	633	63.4	0.784851	0.504351	0.000000	0.785000	0.000609	13	.......	1
	636	63.7	0.769843	0.483653	0.000000	0.770000	0.000603	13	.......	1
	639	64	0.754821	0.462741	0.000000	0.755000	0.000604	13	.......	1
	642	64.3	0.739884	0.440535	0.000000	0.740000	0.000608	13	.......	1
	645	64.6	0.724841	0.417312	0.000000	0.725000	0.000603	13	.......	1
	648	64.9	0.709873	0.392246	0.000000	0.710000	0.000604	13	.......	1
	651	65.2	0.694861	0.360095	0.000000	0.695000	0.000607	13	.......	1
	654	65.5	0.679891	0.328935	0.000000	0.680000	0.000606	13	.......	1
	657	65.8	0.664841	0.288148	0.000000	0.665000	0.000607	13	.......	1
	660	66.1	0.649850	0.240289	0.000000	0.650000	0.000607	13	.......	1
	663	66.4	0.634860	0.181811	0.000000	0.635000	0.000602	13	.......	1
	666	66.7	0.619885	0.111804	0.000000	0.620000	0.000603	13	.......	1
	669	67	0.604819	0.028523	0.000000	0.605000	0.000610	13	.......	1
	672	67.3	0.589861	-0.067866	0.000000	0.590000	0.000609	13	.......	1
	675	67.6	0.574913	-0.177475	0.000000	0.575000	0.000605	13	.......	1
	678	67.9	0.559884	-0.297781	0.000000	0.560000	0.000608	13	.......	1
	681	68.2	0.544869	-0.426441	0.000000	0.545000	0.000608	13	.......	1
	684	68.5	0.529867	-0.558323	0.000000	0.530000	0.000602	13	.......	1
	687	68.8	0.514899	-0.688129	0.000000	0.515000	0.000607	13	.......	1
	690	69.1	0.499896	-0.807981	0.000000	0.500000	0.000608	13	.......	1
	693	69.4	0.484952	-0.912473	0.000000	0.485000	0.000603	13	.......	1
	696	69.7	0.469967	-0.994070	0.000000	0.470000	0.000603	13	.......	1
	699	70	0.455002	-1.050405	0.000000	0.455000	0.000609	13	.......	1
	702	70.3	0.439934	-1.077806	0.000000	0.440000	0.000597	13	.......	1
	705	70.6	0.424994	-1.077027	0.000000	0.425000	0.000603	13	.......	1
	708	70.9	0.409912	-1.052673	0.000000	0.410000	0.000605	13	.......	1
	711	71.2	0.394975	-1.007681	0.000000	0.395000	0.000607	13	.......	1
	714	71.5	0.379954	-0.949612	0.000000	0.380000	0.000602	13	.......	1
	717	71.8	0.364952	-0.887057	0.000000	0.365000	0.000608	13	.......	1
	720	72.1	0.349889	-0.827622	0.000000	0.350000	0.000605	13	.......	1
	723	72.4	0.334946	-0.781368	0.000000	0.335000	0.000600	13	.......	1
	726	72.7	0.319934	-0.747167	0.000000	0.320000	0.000606	13	.......	1
	729	73	0.304988	-0.722917	0.000000	0.305000	0.000607	13	.......	1
	732	73.3	0.289953	-0.720957	0.000000	0.290000	0.000602	13	.......	1
	735	73.6	0.275020	-0.754781	0.000000	0.275000	0.000608	13	.......	1
	738	73.9	0.259966	-0.825446	0.000000	0.260000	0.000608	13	.......	1
	741	74.2	0.244886	-0.912364	0.000000	0.245000	0.000603	13	.......	1
	744	74.5	0.229934	-0.982478	0.000000	0.230000	0.000603	13	.......	1
	747	74.8	0.214995	-1.018364	0.000000	0.215000	0.000606	13	.......	1
	750	75.1	0.199957	-1.031244	0.000000	0.200000	0.000607	13	.......	1
	753	75.4	0.184986	-1.045890	0.000000	0.185000	0.000604	13	.......	1
	756	75.7	0.169956	-1.074885	0.000000	0.170000	0.000605	13	.......	1
	759	76	0.155006	-1.117433	0.000000	0.155000	0.000608	13	.......	1
	762	76.3	0.139952	-1.152715	0.000000	0.140000	0.000604	13	.......	1
	765	76.6	0.124945	-1.169075	0.000000	0.125000	0.000608	13	.......	1
	768	76.9	0.109954	-1.173071	0.000000	0.110000	0.000602	13	.......	1
	771	77.2	0.095068	-1.184333	0.000000	0.095000	0.000602	13	.......	1
	774	77.5	0.080004	-1.205367	0.000000	0.080000	0.000609	13	.......	1
	777	77.8	0.065037	-1.232599	0.000000	0.065000	0.000608	13	.......	1
	780	78.1	0.049999	-1.261841	0.000000	0.050000	0.000600	13	.......	1
	783	78.4	0.064965	0.030466	0.000000	0.065000	0.000602	13	.......	1
	786	78.7	0.079904	0.501352	0.000000	0.080000	0.000601	13	.......	1
	789	79	0.094963	0.855322	0.000000	0.095000	0.000603	13	.......	1
	792	79.3	0.109846	1.148064	0.000000	0.110000	0.000602	13	.......	1
	795	79.6	0.124822	1.404055	0.000000	0.125000	0.000607	13	.......	1
	798	79.9	0.139828	1.639709	0.000000	0.140000	0.000602	13	.......	1
	801	80.2	0.154808	1.856685	0.000000	0.155000	0.000604	13	.......	1
	804	80.5	0.169789	2.046231	0.000000	0.170000	0.000604	13	.......	1
	807	80.8	0.184805	2.196083	0.000000	0.185000	0.000604	13	.......	1
	810	81.1	0.199833	2.317771	0.000000	0.200000	0.000599	13	.......	1
	813	81.4	0.214800	2.438861	0.000000	0.215000	0.000606	13	.......	1
	816	81.7	0.229793	2.591019	0.000000	0.230000	0.000602	13	.......	1
	819	82	0.244699	2.789593	0.000000	0.245000	0.000601	13	.......	1
	822	82.3	0.259819	2.991272	0.000000	0.260000	0.000606	13	.......	1
	825	82.6	0.274751	3.048680	0.000000	0.275000	0.000603	13	.......	1
	828	82.9	0.289785	2.889769	0.000000	0.290000	0.000601	13	.......	1
	831	83.2	0.304801	2.716176	0.000000	0.305000	0.000605	13	.......	1
	834	83.5	0.319795	2.612436	0.000000	0.320000	0.000603	13	.......	1
	837	83.8	0.334725	2.573615	0.000000	0.335000	0.000601	13	.......	1
	840	84.1	0.349775	2.537833	0.000000	0.350000	0.000604	13	.......	1
	843	84.4	0.364786	2.471372	0.000000	0.365000	0.000605	13	.......	1
	846	84.7	0.379838	2.422204	0.000000	0.380000	0.000596	13	.......	1
	849	85	0.394777	2.401039	0.000000	0.395000	0.000602	13	.......	1
	852	85.3	0.409754	2.398230	0.000000	0.410000	0.000606	13	.......	1
	855	85.6	0.424804	2.407996	0.000000	0.425000	0.000603	13	.......	1
	858	85.9	0.439801	2.425740	0.000000	0.440000	0.000602	13	.......	1
	861	86.2	0.454757	2.446811	0.000000	0.455000	0.000607	13	.......	1
	864	86.5	0.469822	2.470561	0.000000	0.470000	0.000602	13	.......	1
	867	86.8	0.484799	2.495376	0.000000	0.485000	0.000603	13	.......	1
	870	87.1	0.499803	2.521047	0.000000	0.500000	0.000606	13	.......	1
	873	87.4	0.514693	2.549496	0.000000	0.515000	0.000599	13	.......	1
	876	87.7	0.529702	2.578490	0.000000	0.530000	0.000599	13	.......	1
	879	88	0.544698	2.609933	0.000000	0.545000	0.000605	13	.......	1
	882	88.3	0.559754	2.644509	0.000000	0.560000	0.000608	13	.......	1
	885	88.6	0.574768	2.682991	0.000000	0.575000	0.000599	13	.......	1
	888	88.9	0.589738	2.725894	0.000000	0.590000	0.000607	13	.......	1
	891	89.2	0.604684	2.773360	0.000000	0.605000	0.000605	13	.......	1
	894	89.5	0.619762	2.825689	0.000000	0.620000	0.000602	13	.......	1
	897	89.8	0.634690	2.881596	0.000000	0.635000	0.000601	13	.......	1
	900	90.1	0.649700	2.940969	0.000000	0.650000	0.000607	13	.......	1
	903	90.4	0.664691	3.002310	0.000000	0.665000	0.000605	13	.......	1
	906	90.7	0.679773	3.065088	0.000000	0.680000	0.000603	13	.......	1
	909	91	0.694693	3.127056	0.000000	0.695000	0.000604	13	.......	1
	912	91.3	0.709753	3.188278	0.000000	0.710000	0.000603	13	.......	1
	915	91.6	0.724688	3.245659	0.000000	0.725000	0.000598	13	.......	1
	918	91.9	0.739748	3.297993	0.000000	0.740000	0.000607	13	.......	1
	921	92.2	0.754675	3.346673	0.000000	0.755000	0.000602	13	.......	1
	924	92.5	0.769686	3.389131	0.000000	0.770000	0.000601	13	.......	1
	927	92.8	0.784683	3.424974	0.000000	0.785000	0.000610	13	.......	1
	930	93.1	0.799718	3.455699	0.000000	0.800000	0.000610	13	.......	1
	933	93.4	0.814666	3.478657	0.000000	0.815000	0.000598	13	.......	1
	936	93.7	0.829735	3.495943	0.000000	0.830000	0.000606	13	.......	1
	939	94	0.844703	3.509019	0.000000	0.845000	0.000606	13	.......	1
	942	94.3	0.859735	3.518703	0.000000	0.860000	0.000604	13	.......	1
	945	94.6	0.874699	3.524796	0.000000	0.875000	0.000600	13	.......	1
	948	94.9	0.889695	3.528039	0.000000	0.890000	0.000608	13	.......	1
	951	95.2	0.904694	3.527800	0.000000	0.905000	0.000601	13	.......	1
	954	95.5	0.919746	3.527659	0.000000	0.920000	0.000600	13	.......	1
	957	95.8	0.934633	3.525367	0.000000	0.935000	0.000604	13	.......	1
	960	96.1	0.949662	3.521027	0.000000	0.950000	0.000600	13	.......	1
	963	96.4	0.964643	3.516503	0.000000	0.965000	0.000602	13	.......	1
	966	96.7	0.979715	3.511936	0.000000	0.980000	0.000602	13	.......	1
	969	97	0.994654	3.507958	0.000000	0.995000	0.000599	13	.......	1
	972	97.3	1.009674	3.507408	0.000000	1.010000	0.000601	13	.......	1
	975	97.6	1.024646	3.508887	0.000000	1.025000	0.000602	13	.......	1
	978	97.9	1.039683	3.517777	0.000000	1.040000	0.000602	13	.......	1
	981	98.2	1.054638	3.531851	0.000000	1.055000	0.000599	13	.......	1
	984	98.5	1.069654	3.552002	0.000000	1.070000	0.000605	13	.......	1
	987	98.8	1.084681	3.580703	0.000000	1.085000	0.000604	13	.......	1
	990	99.1	1.099737	3.616618	0.000000	1.100000	0.000600	13	.......	1
	993	99.4	1.114639	3.660704	0.000000	1.115000	0.000602	13	.......	1
	996	99.7	1.129627	3.709770	0.000000	1.130000	0.000605	13	.......	1
	999	100	1.144650	3.764710	0.000000	1.145000	0.000602	13	.......	1
	1002	100.3	1.159629	3.824258	0.000000	1.160000	0.000600	13	.......	1
	1005	100.6	1.174597	3.885693	0.000000	1.175000	0.000604	13	.......	1
	1008	100.9	1.189680	3.949404	0.000000	1.190000	0.000602	13	.......	1
	1011	101.2	1.204627	4.014250	0.000000	1.205000	0.000605	13	.......	1
	1014	101.5	1.219633	4.079523	0.000000	1.220000	0.000606	13	.......	1
	1017	101.8	1.234632	4.145465	0.000000	1.235000	0.000603	13	.......	1
	1020	102.1	1.249635	4.209999	0.000000	1.250000	0.000602	13	.......	1
	1023	102.4	1.264630	4.271860	0.000000	1.265000	0.000605	13	.......	1
	1026	102.7	1.279606	4.333074	0.000000	1.280000	0.000605	13	.......	1
	1029	103	1.294601	4.389716	0.000000	1.295000	0.000604	13	.......	1
	1032	103.3	1.309644	4.442820	0.000000	1.310000	0.000608	13	.......	1
	1035	103.6	1.324631	4.492576	0.000000	1.325000	0.000609	13	.......	1
	1038	103.9	1.339586	4.543940	0.000000	1.340000	0.000603	13	.......	1
	1041	104.2	1.344665	3.359890	0.000000	1.345000	0.000613	13	.......	2
	1044	104.5	1.329713	2.361614	0.000000	1.330000	0.000604	13	.......	2
	1047	104.8	1.314736	1.862237	0.000000	1.315000	0.000605	13	.......	2
	1050	105.1	1.299847	1.563653	0.000000	1.300000	0.000611	13	.......	2
	1053	105.4	1.284792	1.371144	0.000000	1.285000	0.000603	13	.......	2
	1056	105.7	1.269795	1.240873	0.000000	1.270000	0.000605	13	.......	2
	1059	106	1.254728	1.146837	0.000000	1.255000	0.000604	13	.......	2
	1062	106.3	1.239820	1.079323	0.000000	1.240000	0.000607	13	.......	2
	1065	106.6	1.224765	1.027704	0.000000	1.225000	0.000604	13	.......	2
	1068	106.9	1.209774	0.988234	0.000000	1.210000	0.000608	13	.......	2
	1071	107.2	1.194752	0.958693	0.000000	1.195000	0.000602	13	.......	2
	1074	107.5	1.179844	0.935139	0.000000	1.180000	0.000607	13	.......	2
	1077	107.8	1.164755	0.917650	0.000000	1.165000	0.000609	13	.......	2
	1080	108.1	1.149810	0.904376	0.000000	1.150000	0.000605	13	.......	2
	1083	108.4	1.134783	0.895119	0.000000	1.135000	0.000605	13	.......	2
	1086	108.7	1.119855	0.887366	0.000000	1.120000	0.000611	13	.......	2
	1089	109	1.104784	0.878211	0.000000	1.105000	0.000612	13	.......	2
	1092	109.3	1.089768	0.874484	0.000000	1.090000	0.000606	13	.......	2
	1095	109.6	1.074740	0.867812	0.000000	1.075000	0.000604	13	.......	2
	1098	109.9	1.059812	0.860984	0.000000	1.060000	0.000609	13	.......	2
	1101	110.2	1.044799	0.851958	0.000000	1.045000	0.000601	13	.......	2
	1104	110.5	1.029817	0.840512	0.000000	1.030000	0.000602	13	.......	2
	1107	110.8	1.014753	0.827164	0.000000	1.015000	0.000603	13	.......	2
	1110	111.1	0.999814	0.811064	0.000000	1.000000	0.000608	13	.......	2
	1113	111.4	0.984826	0.794086	0.000000	0.985000	0.000602	13	.......	2
	1116	111.7	0.969757	0.775045	0.000000	0.970000	0.000610	13	.......	2
	1119	112	0.954766	0.755429	0.000000	0.955000	0.000602	13	.......	2
	1122	112.3	0.939865	0.736033	0.000000	0.940000	0.000604	13	.......	2
	1125	112.6	0.924785	0.715915	0.000000	0.925000	0.000610	13	.......	2
	1128	112.9	0.909861	0.697083	0.000000	0.910000	0.000609	13	.......	2
	1131	113.2	0.894896	0.678409	0.000000	0.895000	0.000604	13	.......	2
	1134	113.5	0.879888	0.660611	0.000000	0.880000	0.000607	13	.......	2
	1137	113.8	0.864822	0.642428	0.000000	0.865000	0.000610	13	.......	2
	1140	114.1	0.849834	0.623336	0.000000	0.850000	0.000604	13	.......	2
	1143	114.4	0.834824	0.604428	0.000000	0.835000	0.000609	13	.......	2
	1146	114.7	0.819867	0.585075	0.000000	0.820000	0.000609	13	.......	2
	1149	115	0.804842	0.565389	0.000000	0.805000	0.000608	13	.......	2
	1152	115.3	0.789864	0.544832	0.000000	0.790000	0.000608	13	.......	2
	1155	115.6	0.774864	0.524649	0.000000	0.775000	0.000611	13	.......	2
	1158	115.9	0.759858	0.503534	0.000000	0.760000	0.000608	13	.......	2
	1161	116.2	0.744806	0.480923	0.000000	0.745000	0.000608	13	.......	2
	1164	116.5	0.729836	0.457144	0.000000	0.730000	0.000612	13	.......	2
	1167	116.8	0.714866	0.431021	0.000000	0.715000	0.000603	13	.......	2
	1170	117.1	0.699893	0.402279	0.000000	0.700000	0.000606	13	.......	2
	1173	117.4	0.684848	0.367550	0.000000	0.685000	0.000611	13	.......	2
	1176	117.7	0.669881	0.327183	0.000000	0.670000	0.000604	13	.......	2
	1179	118	0.654803	0.278633	0.000000	0.655000	0.000601	13	.......	2
	1182	118.3	0.639885	0.219993	0.000000	0.640000	0.000606	13	.......	2
	1185	118.6	0.624868	0.150715	0.000000	0.625000	0.000609	13	.......	2
	1188	118.9	0.609847	0.069487	0.000000	0.610000	0.000606	13	.......	2
	1191	119.2	0.594868	-0.026019	0.000000	0.595000	0.000607	13	.......	2
	1194	119.5	0.579900	-0.133861	0.000000	0.580000	0.000611	13	.......	2
	1197	119.8	0.564872	-0.253450	0.000000	0.565000	0.000606	13	.......	2
	1200	120.1	0.549886	-0.381205	0.000000	0.550000	0.000605	13	.......	2
	1203	120.4	0.534928	-0.513612	0.000000	0.535000	0.000609	13	.......	2
	1206	120.7	0.519903	-0.643095	0.000000	0.520000	0.000606	13	.......	2
	1209	121	0.504966	-0.765226	0.000000	0.505000	0.000606	13	.......	2
	1212	121.3	0.489937	-0.871744	0.000000	0.490000	0.000609	13	.......	2
	1215	121.6	0.475006	-0.956218	0.000000	0.475000	0.000604	13	.......	2
	1218	121.9	0.459935	-1.014166	0.000000	0.460000	0.000602	13	.......	2
	1221	122.2	0.444938	-1.043728	0.000000	0.445000	0.000609	13	.......	2
	1224	122.5	0.429923	-1.044698	0.000000	0.430000	0.000604	13	.......	2
	1227	122.8	0.414990	-1.020352	0.000000	0.415000	0.000607	13	.......	2
	1230	123.1	0.399909	-0.973917	0.000000	0.400000	0.000609	13	.......	2
	1233	123.4	0.384946	-0.912236	0.000000	0.385000	0.000610	13	.......	2
	1236	123.7	0.369958	-0.843928	0.000000	0.370000	0.000605	13	.......	2
	1239	124	0.354927	-0.777873	0.000000	0.355000	0.000607	13	.......	2
	1242	124.3	0.339905	-0.724270	0.000000	0.340000	0.000609	13	.......	2
	1245	124.6	0.324905	-0.685222	0.000000	0.325000	0.000606	13	.......	2
	1248	124.9	0.309899	-0.656481	0.000000	0.310000	0.000602	13	.......	2
	1251	125.2	0.294984	-0.646510	0.000000	0.295000	0.000609	13	.......	2
	1254	125.5	0.279956	-0.672052	0.000000	0.280000	0.000607	13	.......	2
	1257	125.8	0.264993	-0.735865	0.000000	0.265000	0.000604	13	.......	2
	1260	126.1	0.249899	-0.823941	0.000000	0.250000	0.000610	13	.......	2
	1263	126.4	0.234956	-0.904730	0.000000	0.235000	0.000609	13	.......	2
	1266	126.7	0.219956	-0.948504	0.000000	0.220000	0.000606	13	.......	2
	1269	127	0.204939	-0.963848	0.000000	0.205000	0.000610	13	.......	2
	1272	127.3	0.189959	-0.972364	0.000000	0.190000	0.000604	13	.......	2
	1275	127.6	0.175051	-0.994966	0.000000	0.175000	0.000602	13	.......	2
	1278	127.9	0.159975	-1.035986	0.000000	0.160000	0.000609	13	.......	2
	1281	128.2	0.144972	-1.079584	0.000000	0.145000	0.000610	13	.......	2
	1284	128.5	0.129917	-1.106508	0.000000	0.130000	0.000605	13	.......	2
	1287	128.8	0.114993	-1.118032	0.000000	0.115000	0.000608	13	.......	2
	1290	129.1	0.099995	-1.133947	0.000000	0.100000	0.000609	13	.......	2
	1293	129.4	0.085022	-1.158853	0.000000	0.085000	0.000604	13	.......	2
	1296	129.7	0.070002	-1.188347	0.000000	0.070000	0.000605	13	.......	2
	1299	130	0.055071	-1.217659	0.000000	0.055000	0.000607	13	.......	2
	1302	130.3	0.059962	-0.125279	0.000000	0.060000	0.000607	13	.......	2
	1305	130.6	0.074982	0.428231	0.000000	0.075000	0.000607	13	.......	2
	1308	130.9	0.089849	0.816180	0.000000	0.090000	0.000609	13	.......	2
	1311	131.2	0.104857	1.127786	0.000000	0.105000	0.000607	13	.......	2
	1314	131.5	0.119851	1.391817	0.000000	0.120000	0.000604	13	.......	2
	1317	131.8	0.134809	1.627983	0.000000	0.135000	0.000607	13	.......	2
	1320	132.1	0.149799	1.845149	0.000000	0.150000	0.000604	13	.......	2
	1323	132.4	0.164832	2.035705	0.000000	0.165000	0.000607	13	.......	2
	1326	132.7	0.179825	2.187442	0.000000	0.180000	0.000610	13	.......	2
	1329	133	0.194747	2.305990	0.000000	0.195000	0.000606	13	.......	2
	1332	133.3	0.209776	2.415452	0.000000	0.210000	0.000609	13	.......	2
	1335	133.6	0.224779	2.547628	0.000000	0.225000	0.000610	13	.......	2
	1338	133.9	0.239783	2.726726	0.000000	0.240000	0.000608	13	.......	2
	1341	134.2	0.254743	2.931675	0.000000	0.255000	0.000604	13	.......	2
	1344	134.5	0.269790	3.054837	0.000000	0.270000	0.000609	13	.......	2
	1347	134.8	0.284755	2.950571	0.000000	0.285000	0.000610	13	.......	2
	1350	135.1	0.299829	2.770434	0.000000	0.300000	0.000605	13	.......	2
	1353	135.4	0.314750	2.642394	0.000000	0.315000	0.000604	13	.......	2
	1356	135.7	0.329739	2.585406	0.000000	0.330000	0.000610	13	.......	2
	1359	136	0.344740	2.555884	0.000000	0.345000	0.000607	13	.......	2
	1362	136.3	0.359797	2.494005	0.000000	0.360000	0.000610	13	.......	2
	1365	136.6	0.374781	2.435940	0.000000	0.375000	0.000611	13	.......	2
	1368	136.9	0.389791	2.405941	0.000000	0.390000	0.000607	13	.......	2
	1371	137.2	0.404759	2.397483	0.000000	0.405000	0.000607	13	.......	2
	1374	137.5	0.419810	2.402991	0.000000	0.420000	0.000609	13	.......	2
	1377	137.8	0.434767	2.417327	0.000000	0.435000	0.000608	13	.......	2
	1380	138.1	0.449718	2.437441	0.000000	0.450000	0.000609	13	.......	2
	1383	138.4	0.464810	2.460149	0.000000	0.465000	0.000610	13	.......	2
	1386	138.7	0.479830	2.484877	0.000000	0.480000	0.000608	13	.......	2
	1389	139	0.494794	2.510253	0.000000	0.495000	0.000604	13	.......	2
	1392	139.3	0.509790	2.536314	0.000000	0.510000	0.000610	13	.......	2
	1395	139.6	0.524734	2.563794	0.000000	0.525000	0.000609	13	.......	2
	1398	139.9	0.539764	2.593357	0.000000	0.540000	0.000607	13	.......	2
	1401	140.2	0.554664	2.625372	0.000000	0.555000	0.000605	13	.......	2
	1404	140.5	0.569748	2.660946	0.000000	0.570000	0.000611	13	.......	2
	1407	140.8	0.584741	2.700448	0.000000	0.585000	0.000605	13	.......	2
	1410	141.1	0.599768	2.745744	0.000000	0.600000	0.000606	13	.......	2
	1413	141.4	0.614682	2.794251	0.000000	0.615000	0.000606	13	.......	2
	1416	141.7	0.629744	2.847700	0.000000	0.630000	0.000607	13	.......	2
	1419	142	0.644688	2.903747	0.000000	0.645000	0.000605	13	.......	2
	1422	142.3	0.659751	2.962735	0.000000	0.660000	0.000611	13	.......	2
	1425	142.6	0.674724	3.022533	0.000000	0.675000	0.000606	13	.......	2
	1428	142.9	0.689719	3.083252	0.000000	0.690000	0.000605	13	.......	2
	1431	143.2	0.704664	3.143641	0.000000	0.705000	0.000610	13	.......	2
	1434	143.5	0.719711	3.200418	0.000000	0.720000	0.000611	13	.......	2
	1437	143.8	0.734661	3.253700	0.000000	0.735000	0.000607	13	.......	2
	1440	144.1	0.749691	3.301978	0.000000	0.750000	0.000608	13	.......	2
	1443	144.4	0.764660	3.345429	0.000000	0.765000	0.000610	13	.......	2
	1446	144.7	0.779741	3.382607	0.000000	0.780000	0.000603	13	.......	2
	1449	145	0.794646	3.413911	0.000000	0.795000	0.000606	13	.......	2
	1452	145.3	0.809648	3.439663	0.000000	0.810000	0.000611	13	.......	2
	1455	145.6	0.824689	3.458804	0.000000	0.825000	0.000605	13	.......	2
	1458	145.9	0.839775	3.473370	0.000000	0.840000	0.000604	13	.......	2
	1461	146.2	0.854691	3.483381	0.000000	0.855000	0.000609	13	.......	2
	1464	146.5	0.869715	3.489727	0.000000	0.870000	0.000606	13	.......	2
	1467	146.8	0.884686	3.494231	0.000000	0.885000	0.000607	13	.......	2
	1470	147.1	0.899756	3.495818	0.000000	0.900000	0.000605	13	.......	2
	1473	147.4	0.914657	3.495446	0.000000	0.915000	0.000606	13	.......	2
	1476	147.7	0.929663	3.493094	0.000000	0.930000	0.000604	13	.......	2
	1479	148	0.944663	3.489109	0.000000	0.945000	0.000609	13	.......	2
	1482	148.3	0.959666	3.486798	0.000000	0.960000	0.000608	13	.......	2
	1485	148.6	0.974658	3.481918	0.000000	0.975000	0.000603	13	.......	2
	1488	148.9	0.989717	3.477201	0.000000	0.990000	0.000611	13	.......	2
	1491	149.2	1.004661	3.475986	0.000000	1.005000	0.000609	13	.......	2
	1494	149.5	1.019720	3.477583	0.000000	1.020000	0.000606	13	.......	2
	1497	149.8	1.034661	3.483472	0.000000	1.035000	0.000606	13	.......	2
	1500	150.1	1.049656	3.495878	0.000000	1.050000	0.000610	13	.......	2
	1503	150.4	1.064641	3.515038	0.000000	1.065000	0.000607	13	.......	2
	1506	150.7	1.079707	3.541408	0.000000	1.080000	0.000606	13	.......	2
	1509	151	1.094651	3.575656	0.000000	1.095000	0.000609	13	.......	2
	1512	151.3	1.109713	3.618918	0.000000	1.110000	0.000606	13	.......	2
	1515	151.6	1.124673	3.664946	0.000000	1.125000	0.000605	13	.......	2
	1518	151.9	1.139612	3.717464	0.000000	1.140000	0.000607	13	.......	2
	1521	152.2	1.154618	3.776248	0.000000	1.155000	0.000602	13	.......	2
	1524	152.5	1.169587	3.838616	0.000000	1.170000	0.000605	13	.......	2
	1527	152.8	1.184653	3.902745	0.000000	1.185000	0.000612	13	.......	2
	1530	153.1	1.199676	3.969820	0.000000	1.200000	0.000609	13	.......	2
	1533	153.4	1.214638	4.036566	0.000000	1.215000	0.000605	13	.......	2
	1536	153.7	1.229637	4.102441	0.000000	1.230000	0.000613	13	.......	2
	1539	154	1.244638	4.169292	0.000000	1.245000	0.000612	13	.......	2
	1542	154.3	1.259633	4.234550	0.000000	1.260000	0.000602	13	.......	2
	1545	154.6	1.274617	4.297858	0.000000	1.275000	0.000604	13	.......	2
	1548	154.9	1.289649	4.358056	0.000000	1.290000	0.000610	13	.......	2
	1551	155.2	1.304657	4.414513	0.000000	1.305000	0.000607	13	.......	2
	1554	155.5	1.319549	4.467772	0.000000	1.320000	0.000606	13	.......	2
	1557	155.8	1.334561	4.520795	0.000000	1.335000	0.000610	13	.......	2
	1559	156	1.344582	4.556360	0.000000	1.345000	0.000610	13	.......	2