File: LSTM/50um/1079714-2/G21-9800-CV-01 Plot-cv data-240622 025506.DTA
EXPLAIN
TAG	CV
TITLE	LABEL	Cyclic Voltammetry	Test &Identifier
DATE	LABEL	2024-06-22	Date
TIME	LABEL	2:55:06 AM	Time
NOTES	NOTES	1	&Notes...
	GI-CV	FCATS v19.0.1f5
PSTAT	PSTAT	REF3000-42167	Potentiostat
VINIT	POTEN	1.350000E+0	F	Initial &E (V)
VLIMIT1	POTEN	1.350000E+0	F	Scan Limit &1 (V)
VLIMIT2	POTEN	5.000000E-2	F	Scan Limit &2 (V)
VFINAL	POTEN	1.350000E+0	F	Final &E (V)
SCANRATE	QUANT	5.000000E-2	&Scan Rate (V/s)
STEPSIZE	QUANT	2	St&ep Size (V)
CYCLES	IQUANT	3	C&ycles (#)
IMODE	SELECTOR	1	I/E Range &Mode
IRANGE	QUANT	NaN	&Max Current (mA)
AREA	QUANT	5.000000E+1	Electrode &Area (cm^2)
ELECTRODETYPE	SELECTOR	0	Electrode Type
STRIPPING	TOGGLE	F	Used for Stripping
POLARITY	TOGGLE	F	Signal Polarity
CONDIT	TWOPARAM	F	0.00000E+000	0.00000E+000	Conditionin&g	Time(s)	E(V)
DELAY	TWOPARAM	0	0.000000E+0	0.00000E+000	Init. De&lay	Time(s)	Stab.(mV/s)
EQDELAY	QUANT	0.000000E+0	Equil. &Time (s)
IRCOMP	SELECTOR	0	IRCom&p
PFCOR	QUANT	0.00000E+000	PF Corr. (ohm)
SAMPLINGMODE	SELECTOR	Surface	Sampling &Mode
EOC	QUANT	0	Open Circuit (V)
PSTATMODEL	IQUANT	6.000000E+0	Pstat Model
PSTATSECTION	LABEL	REF3000-42167	Pstat Section
PSTATSERIALNO	LABEL	42167	Pstat Serial Number
CTRLMODE	IQUANT	0	Control Mode
IESTAB	IQUANT	2	I/E Stability
CASPEED	IQUANT	2	Control Amp Speed
CONVENTION	IQUANT	1	Current Convention
ICHRANGE	IQUANT	2	Ich Range
ICHRANGEMODE	TOGGLE	F	Ich Auto Range
ICHOFFSETENABLE	TOGGLE	F	Ich Offset Enable
ICHOFFSET	QUANT	0	Ich Offset (V)
ICHFILTER	IQUANT	3	Ich Filter
VCHRANGE	IQUANT	2	Vch Range
VCHRANGEMODE	TOGGLE	F	Vch Auto Range
VCHOFFSETENABLE	TOGGLE	F	Vch Offset Enable
VCHOFFSET	QUANT	0	Vch Offset (V)
VCHFILTER	IQUANT	3	Vch Filter
ACHRANGE	IQUANT	2	Ach Range
ACHOFFSETENABLE	TOGGLE	F	Ach Offset Enable
ACHOFFSET	QUANT	0	Ach Offset (V)
ACHFILTER	IQUANT	1	Ach Filter
IERANGELOWERLIMIT	IQUANT	2	I/E Range Lower Limit
IERANGEMODE	TOGGLE	F	I/E AutoRange
IERANGE	IQUANT	9	I/E Range
POSFEEDENABLE	TOGGLE	F	Positive Feedback IR Comp
POSFEEDRESISTANCE	QUANT	0	Positive Feedback Resistance (ohm)
ACHSELECT	IQUANT	0	Ach Select
CABLEID	IQUANT	14	Cable ID
DCCALDATE	LABEL	N/A	DC Calibration Date
ACCALDATE	LABEL	N/A	AC Calibration Date
THERMOSELECT	IQUANT	1	Thermo Select
FRAMEWORKVERSION	QUANT	7.8.2.7430	Framework Version
INSTRUMENTVERSION	LABEL	2.31	Instrument Version
COMPLIANCEVOLTAGE	IQUANT	0	Compliance Voltage
CURVE1	TABLE
	Pt	T	Vf	Im	Vu	Sig	Ach	IERange	Over	Cycle
	#	s	V vs. Ref.	A	V	V	V	#	bits	#
	0	0.100000	1.349750	1.681931	0.000000	1.350000	0.001710	13	.......	0
	3	0.400000	1.334743	0.648410	0.000000	1.335000	0.000619	13	.......	0
	6	0.700000	1.319827	0.520877	0.000000	1.320000	0.000614	13	.......	0
	9	1.000000	1.304855	0.462682	0.000000	1.305000	0.000615	13	.......	0
	12	1.300000	1.289842	0.427245	0.000000	1.290000	0.000616	13	.......	0
	15	1.600000	1.274775	0.402044	0.000000	1.275000	0.000610	13	.......	0
	18	1.900000	1.259842	0.380677	0.000000	1.260000	0.000617	13	.......	0
	21	2.200000	1.244800	0.361440	0.000000	1.245000	0.000618	13	.......	0
	24	2.500000	1.229837	0.345421	0.000000	1.230000	0.000618	13	.......	0
	27	2.800000	1.214821	0.333593	0.000000	1.215000	0.000616	13	.......	0
	30	3.100000	1.199869	0.324703	0.000000	1.200000	0.000617	13	.......	0
	33	3.400000	1.184832	0.318625	0.000000	1.185000	0.000618	13	.......	0
	36	3.700000	1.169759	0.316828	0.000000	1.170000	0.000614	13	.......	0
	39	4.000000	1.154757	0.316443	0.000000	1.155000	0.000613	13	.......	0
	42	4.300000	1.139827	0.321653	0.000000	1.140000	0.000620	13	.......	0
	45	4.600000	1.124842	0.329952	0.000000	1.125000	0.000618	13	.......	0
	48	4.900000	1.109877	0.340532	0.000000	1.110000	0.000615	13	.......	0
	51	5.200000	1.094843	0.352424	0.000000	1.095000	0.000619	13	.......	0
	54	5.500000	1.079876	0.364061	0.000000	1.080000	0.000619	13	.......	0
	57	5.800000	1.064791	0.375953	0.000000	1.065000	0.000618	13	.......	0
	60	6.100000	1.049808	0.384887	0.000000	1.050000	0.000618	13	.......	0
	63	6.400000	1.034820	0.390477	0.000000	1.035000	0.000615	13	.......	0
	66	6.700000	1.019878	0.392542	0.000000	1.020000	0.000616	13	.......	0
	69	7.000000	1.004822	0.388372	0.000000	1.005000	0.000619	13	.......	0
	72	7.300000	0.989864	0.379816	0.000000	0.990000	0.000618	13	.......	0
	75	7.600000	0.974844	0.366441	0.000000	0.975000	0.000613	13	.......	0
	78	7.900000	0.959839	0.349994	0.000000	0.960000	0.000615	13	.......	0
	81	8.200000	0.944833	0.331252	0.000000	0.945000	0.000618	13	.......	0
	84	8.500000	0.929832	0.313189	0.000000	0.930000	0.000615	13	.......	0
	87	8.800000	0.914840	0.293126	0.000000	0.915000	0.000613	13	.......	0
	90	9.100000	0.899897	0.277814	0.000000	0.900000	0.000617	13	.......	0
	93	9.400001	0.884859	0.262158	0.000000	0.885000	0.000616	13	.......	0
	96	9.700000	0.869866	0.249543	0.000000	0.870000	0.000615	13	.......	0
	99	10	0.854873	0.237764	0.000000	0.855000	0.000618	13	.......	0
	102	10.3	0.839910	0.227732	0.000000	0.840000	0.000616	13	.......	0
	105	10.6	0.824881	0.216454	0.000000	0.825000	0.000619	13	.......	0
	108	10.9	0.809807	0.206051	0.000000	0.810000	0.000622	13	.......	0
	111	11.2	0.794813	0.196372	0.000000	0.795000	0.000617	13	.......	0
	114	11.5	0.779896	0.188384	0.000000	0.780000	0.000616	13	.......	0
	117	11.8	0.764814	0.181174	0.000000	0.765000	0.000621	13	.......	0
	120	12.1	0.749864	0.177062	0.000000	0.750000	0.000616	13	.......	0
	123	12.4	0.734854	0.175538	0.000000	0.735000	0.000615	13	.......	0
	126	12.7	0.719874	0.177352	0.000000	0.720000	0.000619	13	.......	0
	129	13	0.704840	0.181892	0.000000	0.705000	0.000617	13	.......	0
	132	13.3	0.689865	0.188987	0.000000	0.690000	0.000620	13	.......	0
	135	13.6	0.674888	0.199963	0.000000	0.675000	0.000617	13	.......	0
	138	13.9	0.659882	0.211977	0.000000	0.660000	0.000619	13	.......	0
	141	14.2	0.644836	0.220133	0.000000	0.645000	0.000619	13	.......	0
	144	14.5	0.629862	0.225685	0.000000	0.630000	0.000616	13	.......	0
	147	14.8	0.614838	0.223864	0.000000	0.615000	0.000620	13	.......	0
	150	15.1	0.599889	0.213967	0.000000	0.600000	0.000617	13	.......	0
	153	15.4	0.584906	0.190662	0.000000	0.585000	0.000616	13	.......	0
	156	15.7	0.569879	0.154347	0.000000	0.570000	0.000617	13	.......	0
	159	16	0.554816	0.100836	0.000000	0.555000	0.000616	13	.......	0
	162	16.3	0.539884	0.029069	0.000000	0.540000	0.000617	13	.......	0
	165	16.6	0.524879	-0.062017	0.000000	0.525000	0.000619	13	.......	0
	168	16.9	0.509897	-0.173698	0.000000	0.510000	0.000615	13	.......	0
	171	17.2	0.494961	-0.304902	0.000000	0.495000	0.000615	13	.......	0
	174	17.5	0.479942	-0.458627	0.000000	0.480000	0.000618	13	.......	0
	177	17.8	0.464989	-0.630346	0.000000	0.465000	0.000618	13	.......	0
	180	18.1	0.449874	-0.816690	0.000000	0.450000	0.000615	13	.......	0
	183	18.4	0.435006	-1.011606	0.000000	0.435000	0.000618	13	.......	0
	186	18.7	0.419962	-1.206270	0.000000	0.420000	0.000619	13	.......	0
	189	19	0.404944	-1.389213	0.000000	0.405000	0.000616	13	.......	0
	192	19.3	0.389948	-1.550843	0.000000	0.390000	0.000612	13	.......	0
	195	19.6	0.375054	-1.682938	0.000000	0.375000	0.000619	13	.......	0
	198	19.9	0.359964	-1.778372	0.000000	0.360000	0.000616	13	.......	0
	201	20.2	0.345000	-1.837204	0.000000	0.345000	0.000613	13	.......	0
	204	20.5	0.329977	-1.864501	0.000000	0.330000	0.000618	13	.......	0
	207	20.8	0.315016	-1.862710	0.000000	0.315000	0.000614	13	.......	0
	210	21.1	0.300015	-1.839625	0.000000	0.300000	0.000614	13	.......	0
	213	21.4	0.284993	-1.806339	0.000000	0.285000	0.000622	13	.......	0
	216	21.7	0.269955	-1.770648	0.000000	0.270000	0.000614	13	.......	0
	219	22	0.255039	-1.747000	0.000000	0.255000	0.000614	13	.......	0
	222	22.3	0.239979	-1.730466	0.000000	0.240000	0.000617	13	.......	0
	225	22.6	0.225017	-1.716634	0.000000	0.225000	0.000619	13	.......	0
	228	22.9	0.209993	-1.696647	0.000000	0.210000	0.000614	13	.......	0
	231	23.2	0.195034	-1.671328	0.000000	0.195000	0.000618	13	.......	0
	234	23.5	0.179978	-1.644562	0.000000	0.180000	0.000620	13	.......	0
	237	23.8	0.165025	-1.623734	0.000000	0.165000	0.000617	13	.......	0
	240	24.1	0.149937	-1.604256	0.000000	0.150000	0.000613	13	.......	0
	243	24.4	0.135011	-1.587427	0.000000	0.135000	0.000618	13	.......	0
	246	24.7	0.119981	-1.568918	0.000000	0.120000	0.000615	13	.......	0
	249	25	0.105009	-1.550027	0.000000	0.105000	0.000612	13	.......	0
	252	25.3	0.089971	-1.532949	0.000000	0.090000	0.000618	13	.......	0
	255	25.6	0.075083	-1.520790	0.000000	0.075000	0.000615	13	.......	0
	258	25.9	0.060069	-1.516655	0.000000	0.060000	0.000617	13	.......	0
	261	26.2	0.055037	-0.984292	0.000000	0.055000	0.000618	13	.......	0
	264	26.5	0.069967	-0.571701	0.000000	0.070000	0.000613	13	.......	0
	267	26.8	0.084968	-0.304593	0.000000	0.085000	0.000615	13	.......	0
	270	27.1	0.099938	-0.081625	0.000000	0.100000	0.000619	13	.......	0
	273	27.4	0.114916	0.116006	0.000000	0.115000	0.000618	13	.......	0
	276	27.7	0.129849	0.298411	0.000000	0.130000	0.000615	13	.......	0
	279	28	0.144884	0.470928	0.000000	0.145000	0.000619	13	.......	0
	282	28.3	0.159884	0.639069	0.000000	0.160000	0.000615	13	.......	0
	285	28.6	0.174951	0.802793	0.000000	0.175000	0.000614	13	.......	0
	288	28.9	0.189866	0.964364	0.000000	0.190000	0.000611	13	.......	0
	291	29.2	0.204843	1.130075	0.000000	0.205000	0.000621	13	.......	0
	294	29.5	0.219862	1.309054	0.000000	0.220000	0.000616	13	.......	0
	297	29.8	0.234807	1.510328	0.000000	0.235000	0.000617	13	.......	0
	300	30.1	0.249773	1.730273	0.000000	0.250000	0.000619	13	.......	0
	303	30.4	0.264849	1.932243	0.000000	0.265000	0.000616	13	.......	0
	306	30.7	0.279847	2.036956	0.000000	0.280000	0.000613	13	.......	0
	309	31	0.294790	2.035638	0.000000	0.295000	0.000614	13	.......	0
	312	31.3	0.309800	2.014218	0.000000	0.310000	0.000613	13	.......	0
	315	31.6	0.324774	2.018443	0.000000	0.325000	0.000615	13	.......	0
	318	31.9	0.339802	2.047798	0.000000	0.340000	0.000618	13	.......	0
	321	32.2	0.354732	2.069958	0.000000	0.355000	0.000616	13	.......	0
	324	32.5	0.369816	2.082991	0.000000	0.370000	0.000615	13	.......	0
	327	32.8	0.384776	2.106772	0.000000	0.385000	0.000619	13	.......	0
	330	33.1	0.399811	2.148176	0.000000	0.400000	0.000615	13	.......	0
	333	33.4	0.414798	2.200894	0.000000	0.415000	0.000611	13	.......	0
	336	33.7	0.429802	2.261487	0.000000	0.430000	0.000616	13	.......	0
	339	34	0.444773	2.325529	0.000000	0.445000	0.000617	13	.......	0
	342	34.3	0.459819	2.390174	0.000000	0.460000	0.000614	13	.......	0
	345	34.6	0.474757	2.454156	0.000000	0.475000	0.000614	13	.......	0
	348	34.9	0.489774	2.516468	0.000000	0.490000	0.000619	13	.......	0
	351	35.2	0.504771	2.576770	0.000000	0.505000	0.000619	13	.......	0
	354	35.5	0.519764	2.636896	0.000000	0.520000	0.000616	13	.......	0
	357	35.8	0.534720	2.696287	0.000000	0.535000	0.000617	13	.......	0
	360	36.1	0.549743	2.758088	0.000000	0.550000	0.000616	13	.......	0
	363	36.4	0.564707	2.822226	0.000000	0.565000	0.000617	13	.......	0
	366	36.7	0.579800	2.890090	0.000000	0.580000	0.000619	13	.......	0
	369	37	0.594698	2.961565	0.000000	0.595000	0.000612	13	.......	0
	372	37.3	0.609696	3.038152	0.000000	0.610000	0.000610	13	.......	0
	375	37.6	0.624708	3.116575	0.000000	0.625000	0.000621	13	.......	0
	378	37.9	0.639746	3.198845	0.000000	0.640000	0.000617	13	.......	0
	381	38.2	0.654623	3.282428	0.000000	0.655000	0.000615	13	.......	0
	384	38.5	0.669755	3.366242	0.000000	0.670000	0.000618	13	.......	0
	387	38.8	0.684697	3.448558	0.000000	0.685000	0.000616	13	.......	0
	390	39.1	0.699760	3.531905	0.000000	0.700000	0.000616	13	.......	0
	393	39.4	0.714678	3.603526	0.000000	0.715000	0.000614	13	.......	0
	396	39.7	0.729679	3.674182	0.000000	0.730000	0.000619	13	.......	0
	399	40	0.744652	3.738626	0.000000	0.745000	0.000619	13	.......	0
	402	40.3	0.759666	3.795974	0.000000	0.760000	0.000616	13	.......	0
	405	40.6	0.774677	3.844430	0.000000	0.775000	0.000616	13	.......	0
	408	40.9	0.789719	3.885281	0.000000	0.790000	0.000620	13	.......	0
	411	41.2	0.804672	3.918967	0.000000	0.805000	0.000616	13	.......	0
	414	41.5	0.819691	3.944642	0.000000	0.820000	0.000618	13	.......	0
	417	41.8	0.834650	3.964340	0.000000	0.835000	0.000614	13	.......	0
	420	42.1	0.849664	3.978710	0.000000	0.850000	0.000617	13	.......	0
	423	42.4	0.864663	3.987878	0.000000	0.865000	0.000617	13	.......	0
	426	42.7	0.879741	3.992154	0.000000	0.880000	0.000620	13	.......	0
	429	43	0.894695	3.990973	0.000000	0.895000	0.000617	13	.......	0
	432	43.3	0.909681	3.987507	0.000000	0.910000	0.000618	13	.......	0
	435	43.6	0.924644	3.980923	0.000000	0.925000	0.000617	13	.......	0
	438	43.9	0.939688	3.971664	0.000000	0.940000	0.000615	13	.......	0
	441	44.2	0.954637	3.960392	0.000000	0.955000	0.000616	13	.......	0
	444	44.5	0.969614	3.947529	0.000000	0.970000	0.000618	13	.......	0
	447	44.8	0.984669	3.935556	0.000000	0.985000	0.000616	13	.......	0
	450	45.1	0.999641	3.925650	0.000000	1.000000	0.000618	13	.......	0
	453	45.4	1.014598	3.918570	0.000000	1.015000	0.000619	13	.......	0
	456	45.7	1.029661	3.917619	0.000000	1.030000	0.000614	13	.......	0
	459	46	1.044661	3.924180	0.000000	1.045000	0.000613	13	.......	0
	462	46.3	1.059644	3.939210	0.000000	1.060000	0.000620	13	.......	0
	465	46.6	1.074624	3.964221	0.000000	1.075000	0.000617	13	.......	0
	468	46.9	1.089620	3.998184	0.000000	1.090000	0.000617	13	.......	0
	471	47.2	1.104645	4.041213	0.000000	1.105000	0.000617	13	.......	0
	474	47.5	1.119687	4.093135	0.000000	1.120000	0.000617	13	.......	0
	477	47.8	1.134622	4.149581	0.000000	1.135000	0.000617	13	.......	0
	480	48.1	1.149647	4.210181	0.000000	1.150000	0.000622	13	.......	0
	483	48.4	1.164622	4.274469	0.000000	1.165000	0.000618	13	.......	0
	486	48.7	1.179663	4.340020	0.000000	1.180000	0.000615	13	.......	0
	489	49	1.194627	4.406165	0.000000	1.195000	0.000614	13	.......	0
	492	49.3	1.209615	4.470802	0.000000	1.210000	0.000617	13	.......	0
	495	49.6	1.224637	4.532403	0.000000	1.225000	0.000614	13	.......	0
	498	49.9	1.239624	4.592991	0.000000	1.240000	0.000614	13	.......	0
	501	50.2	1.254596	4.649771	0.000000	1.255000	0.000616	13	.......	0
	504	50.5	1.269595	4.704761	0.000000	1.270000	0.000618	13	.......	0
	507	50.8	1.284643	4.758536	0.000000	1.285000	0.000614	13	.......	0
	510	51.1	1.299670	4.810399	0.000000	1.300000	0.000618	13	.......	0
	513	51.4	1.314621	4.858979	0.000000	1.315000	0.000618	13	.......	0
	516	51.7	1.329594	4.910339	0.000000	1.330000	0.000619	13	.......	0
	519	52	1.344570	4.961549	0.000000	1.345000	0.000623	13	.......	0
	522	52.3	1.339682	2.877448	0.000000	1.340000	0.000618	13	.......	1
	525	52.6	1.324724	1.991316	0.000000	1.325000	0.000620	13	.......	1
	528	52.9	1.309807	1.520008	0.000000	1.310000	0.000621	13	.......	1
	531	53.2	1.294769	1.231668	0.000000	1.295000	0.000615	13	.......	1
	534	53.5	1.279821	1.044238	0.000000	1.280000	0.000617	13	.......	1
	537	53.8	1.264779	0.914696	0.000000	1.265000	0.000619	13	.......	1
	540	54.1	1.249785	0.821414	0.000000	1.250000	0.000617	13	.......	1
	543	54.4	1.234779	0.749923	0.000000	1.235000	0.000615	13	.......	1
	546	54.7	1.219850	0.695201	0.000000	1.220000	0.000618	13	.......	1
	549	55	1.204760	0.652787	0.000000	1.205000	0.000616	13	.......	1
	552	55.3	1.189861	0.621633	0.000000	1.190000	0.000614	13	.......	1
	555	55.6	1.174761	0.597421	0.000000	1.175000	0.000616	13	.......	1
	558	55.9	1.159811	0.581031	0.000000	1.160000	0.000617	13	.......	1
	561	56.2	1.144788	0.569856	0.000000	1.145000	0.000616	13	.......	1
	564	56.5	1.129780	0.563108	0.000000	1.130000	0.000615	13	.......	1
	567	56.8	1.114750	0.559856	0.000000	1.115000	0.000610	13	.......	1
	570	57.1	1.099884	0.558781	0.000000	1.100000	0.000618	13	.......	1
	573	57.4	1.084833	0.559898	0.000000	1.085000	0.000620	13	.......	1
	576	57.7	1.069827	0.560613	0.000000	1.070000	0.000618	13	.......	1
	579	58	1.054783	0.559214	0.000000	1.055000	0.000614	13	.......	1
	582	58.3	1.039857	0.554271	0.000000	1.040000	0.000619	13	.......	1
	585	58.6	1.024780	0.545040	0.000000	1.025000	0.000622	13	.......	1
	588	58.9	1.009829	0.531050	0.000000	1.010000	0.000619	13	.......	1
	591	59.2	0.994804	0.512698	0.000000	0.995000	0.000614	13	.......	1
	594	59.5	0.979865	0.490211	0.000000	0.980000	0.000618	13	.......	1
	597	59.8	0.964770	0.464108	0.000000	0.965000	0.000614	13	.......	1
	600	60.1	0.949824	0.434056	0.000000	0.950000	0.000612	13	.......	1
	603	60.4	0.934746	0.403436	0.000000	0.935000	0.000616	13	.......	1
	606	60.7	0.919887	0.373001	0.000000	0.920000	0.000613	13	.......	1
	609	61	0.904870	0.343445	0.000000	0.905000	0.000616	13	.......	1
	612	61.3	0.889857	0.314262	0.000000	0.890000	0.000617	13	.......	1
	615	61.6	0.874895	0.284780	0.000000	0.875000	0.000615	13	.......	1
	618	61.9	0.859889	0.256391	0.000000	0.860000	0.000613	13	.......	1
	621	62.2	0.844873	0.227844	0.000000	0.845000	0.000618	13	.......	1
	624	62.5	0.829885	0.199790	0.000000	0.830000	0.000614	13	.......	1
	627	62.8	0.814867	0.172506	0.000000	0.815000	0.000616	13	.......	1
	630	63.1	0.799878	0.144400	0.000000	0.800000	0.000618	13	.......	1
	633	63.4	0.784883	0.117717	0.000000	0.785000	0.000617	13	.......	1
	636	63.7	0.769859	0.091973	0.000000	0.770000	0.000611	13	.......	1
	639	64	0.754844	0.068471	0.000000	0.755000	0.000612	13	.......	1
	642	64.3	0.739891	0.045402	0.000000	0.740000	0.000616	13	.......	1
	645	64.6	0.724855	0.024579	0.000000	0.725000	0.000613	13	.......	1
	648	64.9	0.709882	0.003118	0.000000	0.710000	0.000614	13	.......	1
	651	65.2	0.694878	-0.021906	0.000000	0.695000	0.000620	13	.......	1
	654	65.5	0.679895	-0.042237	0.000000	0.680000	0.000613	13	.......	1
	657	65.8	0.664858	-0.068215	0.000000	0.665000	0.000616	13	.......	1
	660	66.1	0.649858	-0.099583	0.000000	0.650000	0.000615	13	.......	1
	663	66.4	0.634878	-0.138778	0.000000	0.635000	0.000611	13	.......	1
	666	66.7	0.619895	-0.188105	0.000000	0.620000	0.000615	13	.......	1
	669	67	0.604838	-0.249694	0.000000	0.605000	0.000618	13	.......	1
	672	67.3	0.589870	-0.325017	0.000000	0.590000	0.000613	13	.......	1
	675	67.6	0.574927	-0.413860	0.000000	0.575000	0.000614	13	.......	1
	678	67.9	0.559891	-0.515936	0.000000	0.560000	0.000614	13	.......	1
	681	68.2	0.544882	-0.630395	0.000000	0.545000	0.000618	13	.......	1
	684	68.5	0.529871	-0.752700	0.000000	0.530000	0.000612	13	.......	1
	687	68.8	0.514906	-0.878657	0.000000	0.515000	0.000617	13	.......	1
	690	69.1	0.499901	-1.001720	0.000000	0.500000	0.000616	13	.......	1
	693	69.4	0.484962	-1.116231	0.000000	0.485000	0.000612	13	.......	1
	696	69.7	0.469976	-1.216623	0.000000	0.470000	0.000615	13	.......	1
	699	70	0.455013	-1.297669	0.000000	0.455000	0.000616	13	.......	1
	702	70.3	0.439950	-1.356301	0.000000	0.440000	0.000612	13	.......	1
	705	70.6	0.425004	-1.391424	0.000000	0.425000	0.000614	13	.......	1
	708	70.9	0.409930	-1.403383	0.000000	0.410000	0.000617	13	.......	1
	711	71.2	0.394992	-1.394530	0.000000	0.395000	0.000613	13	.......	1
	714	71.5	0.379978	-1.370494	0.000000	0.380000	0.000613	13	.......	1
	717	71.8	0.364974	-1.334415	0.000000	0.365000	0.000620	13	.......	1
	720	72.1	0.349898	-1.292392	0.000000	0.350000	0.000614	13	.......	1
	723	72.4	0.334975	-1.251144	0.000000	0.335000	0.000614	13	.......	1
	726	72.7	0.319948	-1.213673	0.000000	0.320000	0.000614	13	.......	1
	729	73	0.305010	-1.180883	0.000000	0.305000	0.000616	13	.......	1
	732	73.3	0.289977	-1.156326	0.000000	0.290000	0.000614	13	.......	1
	735	73.6	0.275037	-1.144506	0.000000	0.275000	0.000614	13	.......	1
	738	73.9	0.259980	-1.153469	0.000000	0.260000	0.000616	13	.......	1
	741	74.2	0.244910	-1.177312	0.000000	0.245000	0.000616	13	.......	1
	744	74.5	0.229945	-1.205664	0.000000	0.230000	0.000614	13	.......	1
	747	74.8	0.215010	-1.226690	0.000000	0.215000	0.000616	13	.......	1
	750	75.1	0.199976	-1.237994	0.000000	0.200000	0.000618	13	.......	1
	753	75.4	0.184999	-1.243899	0.000000	0.185000	0.000616	13	.......	1
	756	75.7	0.169970	-1.250820	0.000000	0.170000	0.000619	13	.......	1
	759	76	0.155013	-1.259481	0.000000	0.155000	0.000621	13	.......	1
	762	76.3	0.139959	-1.270472	0.000000	0.140000	0.000617	13	.......	1
	765	76.6	0.124958	-1.280102	0.000000	0.125000	0.000620	13	.......	1
	768	76.9	0.109963	-1.284218	0.000000	0.110000	0.000614	13	.......	1
	771	77.2	0.095070	-1.287958	0.000000	0.095000	0.000614	13	.......	1
	774	77.5	0.080015	-1.295780	0.000000	0.080000	0.000619	13	.......	1
	777	77.8	0.065042	-1.305310	0.000000	0.065000	0.000618	13	.......	1
	780	78.1	0.050001	-1.317711	0.000000	0.050000	0.000610	13	.......	1
	783	78.4	0.064988	-0.471902	0.000000	0.065000	0.000616	13	.......	1
	786	78.7	0.079942	-0.190338	0.000000	0.080000	0.000617	13	.......	1
	789	79	0.094999	0.039170	0.000000	0.095000	0.000615	13	.......	1
	792	79.3	0.109876	0.244132	0.000000	0.110000	0.000613	13	.......	1
	795	79.6	0.124870	0.432779	0.000000	0.125000	0.000622	13	.......	1
	798	79.9	0.139861	0.613701	0.000000	0.140000	0.000618	13	.......	1
	801	80.2	0.154881	0.790965	0.000000	0.155000	0.000619	13	.......	1
	804	80.5	0.169834	0.965777	0.000000	0.170000	0.000617	13	.......	1
	807	80.8	0.184862	1.135146	0.000000	0.185000	0.000619	13	.......	1
	810	81.1	0.199859	1.302454	0.000000	0.200000	0.000615	13	.......	1
	813	81.4	0.214841	1.475711	0.000000	0.215000	0.000617	13	.......	1
	816	81.7	0.229819	1.667620	0.000000	0.230000	0.000617	13	.......	1
	819	82	0.244741	1.880498	0.000000	0.245000	0.000617	13	.......	1
	822	82.3	0.259840	2.090138	0.000000	0.260000	0.000617	13	.......	1
	825	82.6	0.274804	2.224849	0.000000	0.275000	0.000615	13	.......	1
	828	82.9	0.289806	2.226632	0.000000	0.290000	0.000613	13	.......	1
	831	83.2	0.304830	2.180566	0.000000	0.305000	0.000618	13	.......	1
	834	83.5	0.319811	2.153925	0.000000	0.320000	0.000617	13	.......	1
	837	83.8	0.334746	2.159521	0.000000	0.335000	0.000612	13	.......	1
	840	84.1	0.349786	2.172322	0.000000	0.350000	0.000617	13	.......	1
	843	84.4	0.364799	2.171132	0.000000	0.365000	0.000622	13	.......	1
	846	84.7	0.379842	2.177134	0.000000	0.380000	0.000615	13	.......	1
	849	85	0.394791	2.200810	0.000000	0.395000	0.000613	13	.......	1
	852	85.3	0.409770	2.238008	0.000000	0.410000	0.000618	13	.......	1
	855	85.6	0.424817	2.285929	0.000000	0.425000	0.000613	13	.......	1
	858	85.9	0.439804	2.339665	0.000000	0.440000	0.000616	13	.......	1
	861	86.2	0.454754	2.394923	0.000000	0.455000	0.000615	13	.......	1
	864	86.5	0.469819	2.450948	0.000000	0.470000	0.000613	13	.......	1
	867	86.8	0.484797	2.505623	0.000000	0.485000	0.000613	13	.......	1
	870	87.1	0.499793	2.560171	0.000000	0.500000	0.000617	13	.......	1
	873	87.4	0.514691	2.615572	0.000000	0.515000	0.000612	13	.......	1
	876	87.7	0.529705	2.670290	0.000000	0.530000	0.000616	13	.......	1
	879	88	0.544691	2.726054	0.000000	0.545000	0.000618	13	.......	1
	882	88.3	0.559747	2.785357	0.000000	0.560000	0.000617	13	.......	1
	885	88.6	0.574755	2.847937	0.000000	0.575000	0.000615	13	.......	1
	888	88.9	0.589731	2.914149	0.000000	0.590000	0.000617	13	.......	1
	891	89.2	0.604677	2.985505	0.000000	0.605000	0.000620	13	.......	1
	894	89.5	0.619746	3.060973	0.000000	0.620000	0.000616	13	.......	1
	897	89.8	0.634674	3.141019	0.000000	0.635000	0.000614	13	.......	1
	900	90.1	0.649681	3.223459	0.000000	0.650000	0.000620	13	.......	1
	903	90.4	0.664679	3.305462	0.000000	0.665000	0.000617	13	.......	1
	906	90.7	0.679754	3.387685	0.000000	0.680000	0.000615	13	.......	1
	909	91	0.694679	3.465520	0.000000	0.695000	0.000617	13	.......	1
	912	91.3	0.709743	3.540781	0.000000	0.710000	0.000615	13	.......	1
	915	91.6	0.724673	3.609912	0.000000	0.725000	0.000614	13	.......	1
	918	91.9	0.739733	3.673176	0.000000	0.740000	0.000615	13	.......	1
	921	92.2	0.754660	3.730933	0.000000	0.755000	0.000612	13	.......	1
	924	92.5	0.769669	3.780601	0.000000	0.770000	0.000617	13	.......	1
	927	92.8	0.784667	3.821819	0.000000	0.785000	0.000614	13	.......	1
	930	93.1	0.799690	3.857332	0.000000	0.800000	0.000611	13	.......	1
	933	93.4	0.814645	3.883554	0.000000	0.815000	0.000611	13	.......	1
	936	93.7	0.829709	3.903974	0.000000	0.830000	0.000615	13	.......	1
	939	94	0.844692	3.918255	0.000000	0.845000	0.000614	13	.......	1
	942	94.3	0.859714	3.928805	0.000000	0.860000	0.000611	13	.......	1
	945	94.6	0.874686	3.934005	0.000000	0.875000	0.000613	13	.......	1
	948	94.9	0.889692	3.935148	0.000000	0.890000	0.000618	13	.......	1
	951	95.2	0.904682	3.931454	0.000000	0.905000	0.000614	13	.......	1
	954	95.5	0.919727	3.927600	0.000000	0.920000	0.000612	13	.......	1
	957	95.8	0.934621	3.919025	0.000000	0.935000	0.000617	13	.......	1
	960	96.1	0.949642	3.909577	0.000000	0.950000	0.000615	13	.......	1
	963	96.4	0.964637	3.898715	0.000000	0.965000	0.000611	13	.......	1
	966	96.7	0.979694	3.887305	0.000000	0.980000	0.000615	13	.......	1
	969	97	0.994645	3.877080	0.000000	0.995000	0.000614	13	.......	1
	972	97.3	1.009658	3.870247	0.000000	1.010000	0.000616	13	.......	1
	975	97.6	1.024641	3.869569	0.000000	1.025000	0.000619	13	.......	1
	978	97.9	1.039662	3.874712	0.000000	1.040000	0.000615	13	.......	1
	981	98.2	1.054622	3.888319	0.000000	1.055000	0.000615	13	.......	1
	984	98.5	1.069637	3.911044	0.000000	1.070000	0.000617	13	.......	1
	987	98.8	1.084667	3.942072	0.000000	1.085000	0.000613	13	.......	1
	990	99.1	1.099718	3.983145	0.000000	1.100000	0.000612	13	.......	1
	993	99.4	1.114636	4.032671	0.000000	1.115000	0.000612	13	.......	1
	996	99.7	1.129616	4.087558	0.000000	1.130000	0.000618	13	.......	1
	999	100	1.144644	4.148105	0.000000	1.145000	0.000614	13	.......	1
	1002	100.3	1.159615	4.210915	0.000000	1.160000	0.000612	13	.......	1
	1005	100.6	1.174578	4.275819	0.000000	1.175000	0.000618	13	.......	1
	1008	100.9	1.189660	4.342720	0.000000	1.190000	0.000613	13	.......	1
	1011	101.2	1.204615	4.410887	0.000000	1.205000	0.000616	13	.......	1
	1014	101.5	1.219615	4.475586	0.000000	1.220000	0.000617	13	.......	1
	1017	101.8	1.234623	4.540236	0.000000	1.235000	0.000612	13	.......	1
	1020	102.1	1.249622	4.601824	0.000000	1.250000	0.000614	13	.......	1
	1023	102.4	1.264622	4.660451	0.000000	1.265000	0.000617	13	.......	1
	1026	102.7	1.279585	4.717060	0.000000	1.280000	0.000614	13	.......	1
	1029	103	1.294572	4.774458	0.000000	1.295000	0.000614	13	.......	1
	1032	103.3	1.309622	4.828213	0.000000	1.310000	0.000619	13	.......	1
	1035	103.6	1.324621	4.883580	0.000000	1.325000	0.000617	13	.......	1
	1038	103.9	1.339561	4.938041	0.000000	1.340000	0.000615	13	.......	1
	1041	104.2	1.344667	3.481130	0.000000	1.345000	0.000620	13	.......	2
	1044	104.5	1.329717	2.272993	0.000000	1.330000	0.000619	13	.......	2
	1047	104.8	1.314744	1.706334	0.000000	1.315000	0.000614	13	.......	2
	1050	105.1	1.299856	1.372628	0.000000	1.300000	0.000619	13	.......	2
	1053	105.4	1.284799	1.158368	0.000000	1.285000	0.000615	13	.......	2
	1056	105.7	1.269805	1.013255	0.000000	1.270000	0.000614	13	.......	2
	1059	106	1.254749	0.908225	0.000000	1.255000	0.000616	13	.......	2
	1062	106.3	1.239833	0.831624	0.000000	1.240000	0.000614	13	.......	2
	1065	106.6	1.224783	0.773470	0.000000	1.225000	0.000613	13	.......	2
	1068	106.9	1.209786	0.728485	0.000000	1.210000	0.000614	13	.......	2
	1071	107.2	1.194767	0.693443	0.000000	1.195000	0.000609	13	.......	2
	1074	107.5	1.179859	0.668193	0.000000	1.180000	0.000609	13	.......	2
	1077	107.8	1.164775	0.649018	0.000000	1.165000	0.000615	13	.......	2
	1080	108.1	1.149822	0.636239	0.000000	1.150000	0.000614	13	.......	2
	1083	108.4	1.134791	0.629317	0.000000	1.135000	0.000610	13	.......	2
	1086	108.7	1.119865	0.624968	0.000000	1.120000	0.000616	13	.......	2
	1089	109	1.104800	0.619556	0.000000	1.105000	0.000617	13	.......	2
	1092	109.3	1.089777	0.621695	0.000000	1.090000	0.000617	13	.......	2
	1095	109.6	1.074748	0.621121	0.000000	1.075000	0.000615	13	.......	2
	1098	109.9	1.059818	0.619181	0.000000	1.060000	0.000615	13	.......	2
	1101	110.2	1.044810	0.614689	0.000000	1.045000	0.000616	13	.......	2
	1104	110.5	1.029828	0.606434	0.000000	1.030000	0.000614	13	.......	2
	1107	110.8	1.014779	0.593072	0.000000	1.015000	0.000616	13	.......	2
	1110	111.1	0.999832	0.575116	0.000000	1.000000	0.000616	13	.......	2
	1113	111.4	0.984842	0.553128	0.000000	0.985000	0.000617	13	.......	2
	1116	111.7	0.969772	0.527900	0.000000	0.970000	0.000621	13	.......	2
	1119	112	0.954786	0.499918	0.000000	0.955000	0.000615	13	.......	2
	1122	112.3	0.939877	0.470863	0.000000	0.940000	0.000616	13	.......	2
	1125	112.6	0.924798	0.440752	0.000000	0.925000	0.000617	13	.......	2
	1128	112.9	0.909868	0.411190	0.000000	0.910000	0.000615	13	.......	2
	1131	113.2	0.894922	0.382887	0.000000	0.895000	0.000613	13	.......	2
	1134	113.5	0.879900	0.355044	0.000000	0.880000	0.000615	13	.......	2
	1137	113.8	0.864849	0.327615	0.000000	0.865000	0.000618	13	.......	2
	1140	114.1	0.849852	0.300090	0.000000	0.850000	0.000613	13	.......	2
	1143	114.4	0.834858	0.272592	0.000000	0.835000	0.000612	13	.......	2
	1146	114.7	0.819877	0.245438	0.000000	0.820000	0.000615	13	.......	2
	1149	115	0.804860	0.218586	0.000000	0.805000	0.000615	13	.......	2
	1152	115.3	0.789872	0.192624	0.000000	0.790000	0.000610	13	.......	2
	1155	115.6	0.774878	0.166477	0.000000	0.775000	0.000616	13	.......	2
	1158	115.9	0.759869	0.141675	0.000000	0.760000	0.000614	13	.......	2
	1161	116.2	0.744826	0.117558	0.000000	0.745000	0.000613	13	.......	2
	1164	116.5	0.729843	0.094057	0.000000	0.730000	0.000616	13	.......	2
	1167	116.8	0.714893	0.071619	0.000000	0.715000	0.000613	13	.......	2
	1170	117.1	0.699903	0.048407	0.000000	0.700000	0.000617	13	.......	2
	1173	117.4	0.684869	0.021810	0.000000	0.685000	0.000621	13	.......	2
	1176	117.7	0.669886	-0.006791	0.000000	0.670000	0.000617	13	.......	2
	1179	118	0.654820	-0.041628	0.000000	0.655000	0.000614	13	.......	2
	1182	118.3	0.639891	-0.083790	0.000000	0.640000	0.000615	13	.......	2
	1185	118.6	0.624878	-0.135731	0.000000	0.625000	0.000617	13	.......	2
	1188	118.9	0.609860	-0.198467	0.000000	0.610000	0.000612	13	.......	2
	1191	119.2	0.594877	-0.276020	0.000000	0.595000	0.000614	13	.......	2
	1194	119.5	0.579905	-0.366000	0.000000	0.580000	0.000617	13	.......	2
	1197	119.8	0.564885	-0.470772	0.000000	0.565000	0.000617	13	.......	2
	1200	120.1	0.549893	-0.587005	0.000000	0.550000	0.000617	13	.......	2
	1203	120.4	0.534937	-0.711783	0.000000	0.535000	0.000620	13	.......	2
	1206	120.7	0.519906	-0.838314	0.000000	0.520000	0.000617	13	.......	2
	1209	121	0.504971	-0.963885	0.000000	0.505000	0.000619	13	.......	2
	1212	121.3	0.489942	-1.080285	0.000000	0.490000	0.000622	13	.......	2
	1215	121.6	0.475024	-1.182037	0.000000	0.475000	0.000617	13	.......	2
	1218	121.9	0.459949	-1.263263	0.000000	0.460000	0.000617	13	.......	2
	1221	122.2	0.444948	-1.320082	0.000000	0.445000	0.000622	13	.......	2
	1224	122.5	0.429939	-1.352559	0.000000	0.430000	0.000619	13	.......	2
	1227	122.8	0.415004	-1.360338	0.000000	0.415000	0.000615	13	.......	2
	1230	123.1	0.399921	-1.347420	0.000000	0.400000	0.000616	13	.......	2
	1233	123.4	0.384965	-1.318329	0.000000	0.385000	0.000620	13	.......	2
	1236	123.7	0.369977	-1.277840	0.000000	0.370000	0.000614	13	.......	2
	1239	124	0.354955	-1.230674	0.000000	0.355000	0.000620	13	.......	2
	1242	124.3	0.339917	-1.183455	0.000000	0.340000	0.000618	13	.......	2
	1245	124.6	0.324923	-1.142818	0.000000	0.325000	0.000616	13	.......	2
	1248	124.9	0.309908	-1.107015	0.000000	0.310000	0.000613	13	.......	2
	1251	125.2	0.295013	-1.079169	0.000000	0.295000	0.000618	13	.......	2
	1254	125.5	0.279976	-1.066607	0.000000	0.280000	0.000618	13	.......	2
	1257	125.8	0.265008	-1.073223	0.000000	0.265000	0.000619	13	.......	2
	1260	126.1	0.249914	-1.098102	0.000000	0.250000	0.000620	13	.......	2
	1263	126.4	0.234972	-1.129568	0.000000	0.235000	0.000616	13	.......	2
	1266	126.7	0.219967	-1.152428	0.000000	0.220000	0.000617	13	.......	2
	1269	127	0.204953	-1.166433	0.000000	0.205000	0.000618	13	.......	2
	1272	127.3	0.189966	-1.173970	0.000000	0.190000	0.000614	13	.......	2
	1275	127.6	0.175061	-1.179002	0.000000	0.175000	0.000612	13	.......	2
	1278	127.9	0.159982	-1.190205	0.000000	0.160000	0.000617	13	.......	2
	1281	128.2	0.144979	-1.202854	0.000000	0.145000	0.000617	13	.......	2
	1284	128.5	0.129930	-1.215886	0.000000	0.130000	0.000608	13	.......	2
	1287	128.8	0.115001	-1.224678	0.000000	0.115000	0.000616	13	.......	2
	1290	129.1	0.100007	-1.232888	0.000000	0.100000	0.000615	13	.......	2
	1293	129.4	0.085022	-1.240830	0.000000	0.085000	0.000610	13	.......	2
	1296	129.7	0.070015	-1.254025	0.000000	0.070000	0.000611	13	.......	2
	1299	130	0.055074	-1.269078	0.000000	0.055000	0.000618	13	.......	2
	1302	130.3	0.059993	-0.535436	0.000000	0.060000	0.000614	13	.......	2
	1305	130.6	0.075014	-0.207544	0.000000	0.075000	0.000615	13	.......	2
	1308	130.9	0.089873	0.040078	0.000000	0.090000	0.000615	13	.......	2
	1311	131.2	0.104912	0.256225	0.000000	0.105000	0.000616	13	.......	2
	1314	131.5	0.119882	0.453162	0.000000	0.120000	0.000616	13	.......	2
	1317	131.8	0.134872	0.640545	0.000000	0.135000	0.000618	13	.......	2
	1320	132.1	0.149830	0.824365	0.000000	0.150000	0.000613	13	.......	2
	1323	132.4	0.164877	1.003757	0.000000	0.165000	0.000616	13	.......	2
	1326	132.7	0.179853	1.176458	0.000000	0.180000	0.000616	13	.......	2
	1329	133	0.194821	1.342920	0.000000	0.195000	0.000615	13	.......	2
	1332	133.3	0.209825	1.511588	0.000000	0.210000	0.000612	13	.......	2
	1335	133.6	0.224844	1.693836	0.000000	0.225000	0.000620	13	.......	2
	1338	133.9	0.239818	1.898819	0.000000	0.240000	0.000618	13	.......	2
	1341	134.2	0.254791	2.112222	0.000000	0.255000	0.000614	13	.......	2
	1344	134.5	0.269813	2.277504	0.000000	0.270000	0.000615	13	.......	2
	1347	134.8	0.284793	2.308027	0.000000	0.285000	0.000618	13	.......	2
	1350	135.1	0.299844	2.256094	0.000000	0.300000	0.000616	13	.......	2
	1353	135.4	0.314772	2.209932	0.000000	0.315000	0.000614	13	.......	2
	1356	135.7	0.329761	2.199156	0.000000	0.330000	0.000614	13	.......	2
	1359	136	0.344762	2.208367	0.000000	0.345000	0.000614	13	.......	2
	1362	136.3	0.359810	2.203866	0.000000	0.360000	0.000614	13	.......	2
	1365	136.6	0.374808	2.199703	0.000000	0.375000	0.000615	13	.......	2
	1368	136.9	0.389801	2.211703	0.000000	0.390000	0.000610	13	.......	2
	1371	137.2	0.404778	2.240303	0.000000	0.405000	0.000612	13	.......	2
	1374	137.5	0.419818	2.280294	0.000000	0.420000	0.000613	13	.......	2
	1377	137.8	0.434783	2.327661	0.000000	0.435000	0.000611	13	.......	2
	1380	138.1	0.449721	2.378498	0.000000	0.450000	0.000610	13	.......	2
	1383	138.4	0.464814	2.430662	0.000000	0.465000	0.000617	13	.......	2
	1386	138.7	0.479830	2.482768	0.000000	0.480000	0.000615	13	.......	2
	1389	139	0.494800	2.534228	0.000000	0.495000	0.000612	13	.......	2
	1392	139.3	0.509786	2.585730	0.000000	0.510000	0.000615	13	.......	2
	1395	139.6	0.524733	2.637414	0.000000	0.525000	0.000615	13	.......	2
	1398	139.9	0.539756	2.691088	0.000000	0.540000	0.000612	13	.......	2
	1401	140.2	0.554662	2.746767	0.000000	0.555000	0.000613	13	.......	2
	1404	140.5	0.569741	2.805558	0.000000	0.570000	0.000620	13	.......	2
	1407	140.8	0.584738	2.867299	0.000000	0.585000	0.000614	13	.......	2
	1410	141.1	0.599757	2.934298	0.000000	0.600000	0.000614	13	.......	2
	1413	141.4	0.614672	3.004504	0.000000	0.615000	0.000615	13	.......	2
	1416	141.7	0.629740	3.080589	0.000000	0.630000	0.000616	13	.......	2
	1419	142	0.644681	3.159132	0.000000	0.645000	0.000617	13	.......	2
	1422	142.3	0.659737	3.239156	0.000000	0.660000	0.000615	13	.......	2
	1425	142.6	0.674712	3.317986	0.000000	0.675000	0.000612	13	.......	2
	1428	142.9	0.689703	3.395148	0.000000	0.690000	0.000613	13	.......	2
	1431	143.2	0.704660	3.469318	0.000000	0.705000	0.000616	13	.......	2
	1434	143.5	0.719697	3.538456	0.000000	0.720000	0.000619	13	.......	2
	1437	143.8	0.734648	3.602004	0.000000	0.735000	0.000615	13	.......	2
	1440	144.1	0.749677	3.659092	0.000000	0.750000	0.000615	13	.......	2
	1443	144.4	0.764650	3.708646	0.000000	0.765000	0.000617	13	.......	2
	1446	144.7	0.779725	3.752002	0.000000	0.780000	0.000616	13	.......	2
	1449	145	0.794637	3.787484	0.000000	0.795000	0.000613	13	.......	2
	1452	145.3	0.809633	3.816161	0.000000	0.810000	0.000617	13	.......	2
	1455	145.6	0.824679	3.837634	0.000000	0.825000	0.000611	13	.......	2
	1458	145.9	0.839755	3.853978	0.000000	0.840000	0.000611	13	.......	2
	1461	146.2	0.854673	3.864685	0.000000	0.855000	0.000613	13	.......	2
	1464	146.5	0.869702	3.870932	0.000000	0.870000	0.000613	13	.......	2
	1467	146.8	0.884677	3.873157	0.000000	0.885000	0.000616	13	.......	2
	1470	147.1	0.899737	3.872314	0.000000	0.900000	0.000614	13	.......	2
	1473	147.4	0.914650	3.868886	0.000000	0.915000	0.000615	13	.......	2
	1476	147.7	0.929650	3.862099	0.000000	0.930000	0.000615	13	.......	2
	1479	148	0.944660	3.852842	0.000000	0.945000	0.000615	13	.......	2
	1482	148.3	0.959651	3.844051	0.000000	0.960000	0.000613	13	.......	2
	1485	148.6	0.974650	3.833906	0.000000	0.975000	0.000610	13	.......	2
	1488	148.9	0.989709	3.823360	0.000000	0.990000	0.000613	13	.......	2
	1491	149.2	1.004651	3.816225	0.000000	1.005000	0.000616	13	.......	2
	1494	149.5	1.019704	3.813935	0.000000	1.020000	0.000611	13	.......	2
	1497	149.8	1.034651	3.818016	0.000000	1.035000	0.000615	13	.......	2
	1500	150.1	1.049644	3.828701	0.000000	1.050000	0.000617	13	.......	2
	1503	150.4	1.064641	3.848804	0.000000	1.065000	0.000612	13	.......	2
	1506	150.7	1.079699	3.878510	0.000000	1.080000	0.000609	13	.......	2
	1509	151	1.094645	3.916228	0.000000	1.095000	0.000613	13	.......	2
	1512	151.3	1.109699	3.963654	0.000000	1.110000	0.000611	13	.......	2
	1515	151.6	1.124663	4.012990	0.000000	1.125000	0.000613	13	.......	2
	1518	151.9	1.139596	4.070265	0.000000	1.140000	0.000616	13	.......	2
	1521	152.2	1.154610	4.132447	0.000000	1.155000	0.000612	13	.......	2
	1524	152.5	1.169583	4.198118	0.000000	1.170000	0.000614	13	.......	2
	1527	152.8	1.184647	4.264750	0.000000	1.185000	0.000615	13	.......	2
	1530	153.1	1.199661	4.332004	0.000000	1.200000	0.000615	13	.......	2
	1533	153.4	1.214622	4.397932	0.000000	1.215000	0.000611	13	.......	2
	1536	153.7	1.229622	4.462891	0.000000	1.230000	0.000615	13	.......	2
	1539	154	1.244637	4.527050	0.000000	1.245000	0.000615	13	.......	2
	1542	154.3	1.259624	4.588312	0.000000	1.260000	0.000612	13	.......	2
	1545	154.6	1.274611	4.647717	0.000000	1.275000	0.000614	13	.......	2
	1548	154.9	1.289642	4.705027	0.000000	1.290000	0.000617	13	.......	2
	1551	155.2	1.304653	4.760826	0.000000	1.305000	0.000614	13	.......	2
	1554	155.5	1.319547	4.817525	0.000000	1.320000	0.000612	13	.......	2
	1557	155.8	1.334563	4.875282	0.000000	1.335000	0.000617	13	.......	2
	1559	156	1.344582	4.913768	0.000000	1.345000	0.000613	13	.......	2