File: LSTM/50um/1079714-2/G21-9800-CV-01 Plot-cv data-240620 082156.DTA
EXPLAIN
TAG	CV
TITLE	LABEL	Cyclic Voltammetry	Test &Identifier
DATE	LABEL	2024-06-20	Date
TIME	LABEL	8:21:56 AM	Time
NOTES	NOTES	1	&Notes...
	GI-CV	FCATS v19.0.1f5
PSTAT	PSTAT	REF3000-42167	Potentiostat
VINIT	POTEN	1.350000E+0	F	Initial &E (V)
VLIMIT1	POTEN	1.350000E+0	F	Scan Limit &1 (V)
VLIMIT2	POTEN	5.000000E-2	F	Scan Limit &2 (V)
VFINAL	POTEN	1.350000E+0	F	Final &E (V)
SCANRATE	QUANT	5.000000E-2	&Scan Rate (V/s)
STEPSIZE	QUANT	2	St&ep Size (V)
CYCLES	IQUANT	3	C&ycles (#)
IMODE	SELECTOR	1	I/E Range &Mode
IRANGE	QUANT	NaN	&Max Current (mA)
AREA	QUANT	5.000000E+1	Electrode &Area (cm^2)
ELECTRODETYPE	SELECTOR	0	Electrode Type
STRIPPING	TOGGLE	F	Used for Stripping
POLARITY	TOGGLE	F	Signal Polarity
CONDIT	TWOPARAM	F	0.00000E+000	0.00000E+000	Conditionin&g	Time(s)	E(V)
DELAY	TWOPARAM	0	0.000000E+0	0.00000E+000	Init. De&lay	Time(s)	Stab.(mV/s)
EQDELAY	QUANT	0.000000E+0	Equil. &Time (s)
IRCOMP	SELECTOR	0	IRCom&p
PFCOR	QUANT	0.00000E+000	PF Corr. (ohm)
SAMPLINGMODE	SELECTOR	Surface	Sampling &Mode
EOC	QUANT	0	Open Circuit (V)
PSTATMODEL	IQUANT	6.000000E+0	Pstat Model
PSTATSECTION	LABEL	REF3000-42167	Pstat Section
PSTATSERIALNO	LABEL	42167	Pstat Serial Number
CTRLMODE	IQUANT	0	Control Mode
IESTAB	IQUANT	2	I/E Stability
CASPEED	IQUANT	2	Control Amp Speed
CONVENTION	IQUANT	1	Current Convention
ICHRANGE	IQUANT	2	Ich Range
ICHRANGEMODE	TOGGLE	F	Ich Auto Range
ICHOFFSETENABLE	TOGGLE	F	Ich Offset Enable
ICHOFFSET	QUANT	0	Ich Offset (V)
ICHFILTER	IQUANT	3	Ich Filter
VCHRANGE	IQUANT	2	Vch Range
VCHRANGEMODE	TOGGLE	F	Vch Auto Range
VCHOFFSETENABLE	TOGGLE	F	Vch Offset Enable
VCHOFFSET	QUANT	0	Vch Offset (V)
VCHFILTER	IQUANT	3	Vch Filter
ACHRANGE	IQUANT	2	Ach Range
ACHOFFSETENABLE	TOGGLE	F	Ach Offset Enable
ACHOFFSET	QUANT	0	Ach Offset (V)
ACHFILTER	IQUANT	1	Ach Filter
IERANGELOWERLIMIT	IQUANT	2	I/E Range Lower Limit
IERANGEMODE	TOGGLE	F	I/E AutoRange
IERANGE	IQUANT	9	I/E Range
POSFEEDENABLE	TOGGLE	F	Positive Feedback IR Comp
POSFEEDRESISTANCE	QUANT	0	Positive Feedback Resistance (ohm)
ACHSELECT	IQUANT	0	Ach Select
CABLEID	IQUANT	14	Cable ID
DCCALDATE	LABEL	N/A	DC Calibration Date
ACCALDATE	LABEL	N/A	AC Calibration Date
THERMOSELECT	IQUANT	1	Thermo Select
FRAMEWORKVERSION	QUANT	7.8.2.7430	Framework Version
INSTRUMENTVERSION	LABEL	2.31	Instrument Version
COMPLIANCEVOLTAGE	IQUANT	0	Compliance Voltage
CURVE1	TABLE
	Pt	T	Vf	Im	Vu	Sig	Ach	IERange	Over	Cycle
	#	s	V vs. Ref.	A	V	V	V	#	bits	#
	0	0.100000	1.349808	-0.010322	0.000000	1.350000	0.001709	13	.......	0
	3	0.400000	1.334930	-2.634723	0.000000	1.335000	0.000622	13	.......	0
	6	0.700000	1.319918	-2.798542	0.000000	1.320000	0.000617	13	.......	0
	9	1.000000	1.305018	-2.852640	0.000000	1.305000	0.000621	13	.......	0
	12	1.300000	1.289991	-2.877338	0.000000	1.290000	0.000618	13	.......	0
	15	1.600000	1.274986	-2.813793	0.000000	1.275000	0.000620	13	.......	0
	18	1.900000	1.259945	-2.815475	0.000000	1.260000	0.000622	13	.......	0
	21	2.200000	1.244927	-2.793528	0.000000	1.245000	0.000624	13	.......	0
	24	2.500000	1.229920	-2.797543	0.000000	1.230000	0.000620	13	.......	0
	27	2.800000	1.214979	-2.725135	0.000000	1.215000	0.000619	13	.......	0
	30	3.100000	1.199961	-2.737636	0.000000	1.200000	0.000625	13	.......	0
	33	3.400000	1.185008	-2.739243	0.000000	1.185000	0.000619	13	.......	0
	36	3.700000	1.169888	-2.784150	0.000000	1.170000	0.000620	13	.......	0
	39	4.000000	1.154940	-2.855550	0.000000	1.155000	0.000624	13	.......	0
	42	4.300000	1.139914	-2.936171	0.000000	1.140000	0.000623	13	.......	0
	45	4.600000	1.124971	-3.055331	0.000000	1.125000	0.000623	13	.......	0
	48	4.900000	1.110005	-3.195879	0.000000	1.110000	0.000619	13	.......	0
	51	5.200000	1.095056	-3.361998	0.000000	1.095000	0.000622	13	.......	0
	54	5.500000	1.080008	-3.525219	0.000000	1.080000	0.000619	13	.......	0
	57	5.800000	1.065018	-3.736194	0.000000	1.065000	0.000617	13	.......	0
	60	6.100000	1.049966	-3.867792	0.000000	1.050000	0.000619	13	.......	0
	63	6.400000	1.035044	-4.054407	0.000000	1.035000	0.000617	13	.......	0
	66	6.700000	1.020036	-4.174217	0.000000	1.020000	0.000618	13	.......	0
	69	7.000000	1.005019	-4.226590	0.000000	1.005000	0.000625	13	.......	0
	72	7.300000	0.990038	-4.273018	0.000000	0.990000	0.000615	13	.......	0
	75	7.600000	0.975076	-4.224082	0.000000	0.975000	0.000619	13	.......	0
	78	7.900000	0.960008	-4.221961	0.000000	0.960000	0.000622	13	.......	0
	81	8.200000	0.945042	-4.109288	0.000000	0.945000	0.000623	13	.......	0
	84	8.500000	0.930020	-3.996761	0.000000	0.930000	0.000617	13	.......	0
	87	8.800000	0.915076	-3.976878	0.000000	0.915000	0.000623	13	.......	0
	90	9.100000	0.900070	-3.961212	0.000000	0.900000	0.000627	13	.......	0
	93	9.400001	0.885017	-3.924388	0.000000	0.885000	0.000622	13	.......	0
	96	9.700000	0.870031	-4.009221	0.000000	0.870000	0.000619	13	.......	0
	99	10	0.855075	-4.102049	0.000000	0.855000	0.000622	13	.......	0
	102	10.3	0.840084	-4.129906	0.000000	0.840000	0.000618	13	.......	0
	105	10.6	0.825078	-4.215939	0.000000	0.825000	0.000617	13	.......	0
	108	10.9	0.810035	-4.189852	0.000000	0.810000	0.000619	13	.......	0
	111	11.2	0.795055	-4.078573	0.000000	0.795000	0.000622	13	.......	0
	114	11.5	0.780076	-3.949007	0.000000	0.780000	0.000618	13	.......	0
	117	11.8	0.764976	-3.772068	0.000000	0.765000	0.000621	13	.......	0
	120	12.1	0.749990	-3.558571	0.000000	0.750000	0.000617	13	.......	0
	123	12.4	0.735067	-3.450544	0.000000	0.735000	0.000622	13	.......	0
	126	12.7	0.719989	-3.295727	0.000000	0.720000	0.000625	13	.......	0
	129	13	0.705068	-3.161194	0.000000	0.705000	0.000623	13	.......	0
	132	13.3	0.690040	-3.122891	0.000000	0.690000	0.000623	13	.......	0
	135	13.6	0.675053	-3.027362	0.000000	0.675000	0.000624	13	.......	0
	138	13.9	0.659971	-2.942905	0.000000	0.660000	0.000626	13	.......	0
	141	14.2	0.644969	-2.880800	0.000000	0.645000	0.000623	13	.......	0
	144	14.5	0.629950	-2.735736	0.000000	0.630000	0.000620	13	.......	0
	147	14.8	0.615010	-2.565261	0.000000	0.615000	0.000621	13	.......	0
	150	15.1	0.599994	-2.480017	0.000000	0.600000	0.000618	13	.......	0
	153	15.4	0.585030	-2.373551	0.000000	0.585000	0.000618	13	.......	0
	156	15.7	0.569993	-2.286644	0.000000	0.570000	0.000621	13	.......	0
	159	16	0.554993	-2.179186	0.000000	0.555000	0.000622	13	.......	0
	162	16.3	0.539947	-2.125718	0.000000	0.540000	0.000618	13	.......	0
	165	16.6	0.524965	-2.016699	0.000000	0.525000	0.000623	13	.......	0
	168	16.9	0.509974	-1.954425	0.000000	0.510000	0.000615	13	.......	0
	171	17.2	0.495043	-1.891638	0.000000	0.495000	0.000617	13	.......	0
	174	17.5	0.480009	-1.826346	0.000000	0.480000	0.000622	13	.......	0
	177	17.8	0.465047	-1.815823	0.000000	0.465000	0.000623	13	.......	0
	180	18.1	0.449923	-1.732350	0.000000	0.450000	0.000616	13	.......	0
	183	18.4	0.435036	-1.690801	0.000000	0.435000	0.000620	13	.......	0
	186	18.7	0.419990	-1.672024	0.000000	0.420000	0.000620	13	.......	0
	189	19	0.404954	-1.658950	0.000000	0.405000	0.000621	13	.......	0
	192	19.3	0.389961	-1.625790	0.000000	0.390000	0.000619	13	.......	0
	195	19.6	0.375055	-1.564993	0.000000	0.375000	0.000623	13	.......	0
	198	19.9	0.359958	-1.529769	0.000000	0.360000	0.000622	13	.......	0
	201	20.2	0.344984	-1.502814	0.000000	0.345000	0.000624	13	.......	0
	204	20.5	0.329954	-1.414218	0.000000	0.330000	0.000623	13	.......	0
	207	20.8	0.314993	-1.353501	0.000000	0.315000	0.000622	13	.......	0
	210	21.1	0.299994	-1.263682	0.000000	0.300000	0.000624	13	.......	0
	213	21.4	0.284964	-1.156295	0.000000	0.285000	0.000625	13	.......	0
	216	21.7	0.269930	-1.051342	0.000000	0.270000	0.000617	13	.......	0
	219	22	0.255004	-0.941692	0.000000	0.255000	0.000624	13	.......	0
	222	22.3	0.239939	-0.838102	0.000000	0.240000	0.000628	13	.......	0
	225	22.6	0.224987	-0.737248	0.000000	0.225000	0.000628	13	.......	0
	228	22.9	0.209940	-0.646208	0.000000	0.210000	0.000618	13	.......	0
	231	23.2	0.194984	-0.570255	0.000000	0.195000	0.000624	13	.......	0
	234	23.5	0.179927	-0.501850	0.000000	0.180000	0.000623	13	.......	0
	237	23.8	0.164969	-0.437562	0.000000	0.165000	0.000619	13	.......	0
	240	24.1	0.149897	-0.383739	0.000000	0.150000	0.000619	13	.......	0
	243	24.4	0.134940	-0.343985	0.000000	0.135000	0.000624	13	.......	0
	246	24.7	0.119938	-0.312525	0.000000	0.120000	0.000619	13	.......	0
	249	25	0.104959	-0.286934	0.000000	0.105000	0.000620	13	.......	0
	252	25.3	0.089912	-0.265768	0.000000	0.090000	0.000621	13	.......	0
	255	25.6	0.075043	-0.249131	0.000000	0.075000	0.000618	13	.......	0
	258	25.9	0.060004	-0.236194	0.000000	0.060000	0.000621	13	.......	0
	261	26.2	0.055023	-0.202054	0.000000	0.055000	0.000617	13	.......	0
	264	26.5	0.069952	-0.177717	0.000000	0.070000	0.000615	13	.......	0
	267	26.8	0.084954	-0.160183	0.000000	0.085000	0.000615	13	.......	0
	270	27.1	0.099946	-0.146077	0.000000	0.100000	0.000624	13	.......	0
	273	27.4	0.114938	-0.133140	0.000000	0.115000	0.000614	13	.......	0
	276	27.7	0.129871	-0.121114	0.000000	0.130000	0.000616	13	.......	0
	279	28	0.144929	-0.105423	0.000000	0.145000	0.000619	13	.......	0
	282	28.3	0.159927	-0.085215	0.000000	0.160000	0.000620	13	.......	0
	285	28.6	0.175002	-0.058432	0.000000	0.175000	0.000617	13	.......	0
	288	28.9	0.189910	-0.023344	0.000000	0.190000	0.000617	13	.......	0
	291	29.2	0.204886	0.026755	0.000000	0.205000	0.000623	13	.......	0
	294	29.5	0.219913	0.097280	0.000000	0.220000	0.000618	13	.......	0
	297	29.8	0.234897	0.196291	0.000000	0.235000	0.000618	13	.......	0
	300	30.1	0.249839	0.334269	0.000000	0.250000	0.000617	13	.......	0
	303	30.4	0.264929	0.518273	0.000000	0.265000	0.000617	13	.......	0
	306	30.7	0.279895	0.768839	0.000000	0.280000	0.000621	13	.......	0
	309	31	0.294885	1.062457	0.000000	0.295000	0.000619	13	.......	0
	312	31.3	0.309830	1.343978	0.000000	0.310000	0.000617	13	.......	0
	315	31.6	0.324813	1.510126	0.000000	0.325000	0.000621	13	.......	0
	318	31.9	0.339827	1.542958	0.000000	0.340000	0.000620	13	.......	0
	321	32.2	0.354784	1.531669	0.000000	0.355000	0.000617	13	.......	0
	324	32.5	0.369844	1.554857	0.000000	0.370000	0.000618	13	.......	0
	327	32.8	0.384828	1.561389	0.000000	0.385000	0.000623	13	.......	0
	330	33.1	0.399829	1.630413	0.000000	0.400000	0.000621	13	.......	0
	333	33.4	0.414844	1.643768	0.000000	0.415000	0.000619	13	.......	0
	336	33.7	0.429820	1.700281	0.000000	0.430000	0.000617	13	.......	0
	339	34	0.444809	1.722851	0.000000	0.445000	0.000623	13	.......	0
	342	34.3	0.459835	1.758588	0.000000	0.460000	0.000619	13	.......	0
	345	34.6	0.474847	1.800717	0.000000	0.475000	0.000618	13	.......	0
	348	34.9	0.489806	1.879243	0.000000	0.490000	0.000622	13	.......	0
	351	35.2	0.504837	1.879490	0.000000	0.505000	0.000620	13	.......	0
	354	35.5	0.519798	1.984042	0.000000	0.520000	0.000616	13	.......	0
	357	35.8	0.534782	2.046472	0.000000	0.535000	0.000621	13	.......	0
	360	36.1	0.549783	2.088460	0.000000	0.550000	0.000615	13	.......	0
	363	36.4	0.564754	2.191288	0.000000	0.565000	0.000618	13	.......	0
	366	36.7	0.579810	2.274202	0.000000	0.580000	0.000620	13	.......	0
	369	37	0.594750	2.328536	0.000000	0.595000	0.000618	13	.......	0
	372	37.3	0.609727	2.422785	0.000000	0.610000	0.000620	13	.......	0
	375	37.6	0.624755	2.502537	0.000000	0.625000	0.000621	13	.......	0
	378	37.9	0.639785	2.554568	0.000000	0.640000	0.000619	13	.......	0
	381	38.2	0.654678	2.615799	0.000000	0.655000	0.000618	13	.......	0
	384	38.5	0.669783	2.713408	0.000000	0.670000	0.000620	13	.......	0
	387	38.8	0.684744	2.746282	0.000000	0.685000	0.000628	13	.......	0
	390	39.1	0.699788	2.823634	0.000000	0.700000	0.000621	13	.......	0
	393	39.4	0.714749	2.834628	0.000000	0.715000	0.000619	13	.......	0
	396	39.7	0.729724	2.833678	0.000000	0.730000	0.000625	13	.......	0
	399	40	0.744702	2.820051	0.000000	0.745000	0.000625	13	.......	0
	402	40.3	0.759752	2.855520	0.000000	0.760000	0.000620	13	.......	0
	405	40.6	0.774753	2.837768	0.000000	0.775000	0.000625	13	.......	0
	408	40.9	0.789769	2.804600	0.000000	0.790000	0.000619	13	.......	0
	411	41.2	0.804739	2.800427	0.000000	0.805000	0.000623	13	.......	0
	414	41.5	0.819768	2.788180	0.000000	0.820000	0.000621	13	.......	0
	417	41.8	0.834735	2.707237	0.000000	0.835000	0.000622	13	.......	0
	420	42.1	0.849733	2.693508	0.000000	0.850000	0.000618	13	.......	0
	423	42.4	0.864747	2.612947	0.000000	0.865000	0.000622	13	.......	0
	426	42.7	0.879799	2.568758	0.000000	0.880000	0.000619	13	.......	0
	429	43	0.894816	2.528096	0.000000	0.895000	0.000619	13	.......	0
	432	43.3	0.909784	2.460289	0.000000	0.910000	0.000618	13	.......	0
	435	43.6	0.924710	2.399981	0.000000	0.925000	0.000625	13	.......	0
	438	43.9	0.939785	2.369842	0.000000	0.940000	0.000624	13	.......	0
	441	44.2	0.954702	2.347629	0.000000	0.955000	0.000618	13	.......	0
	444	44.5	0.969675	2.348691	0.000000	0.970000	0.000625	13	.......	0
	447	44.8	0.984765	2.325106	0.000000	0.985000	0.000620	13	.......	0
	450	45.1	0.999746	2.324713	0.000000	1.000000	0.000622	13	.......	0
	453	45.4	1.014700	2.353519	0.000000	1.015000	0.000622	13	.......	0
	456	45.7	1.029757	2.355763	0.000000	1.030000	0.000624	13	.......	0
	459	46	1.044733	2.424305	0.000000	1.045000	0.000622	13	.......	0
	462	46.3	1.059740	2.447077	0.000000	1.060000	0.000624	13	.......	0
	465	46.6	1.074680	2.481080	0.000000	1.075000	0.000622	13	.......	0
	468	46.9	1.089683	2.512551	0.000000	1.090000	0.000622	13	.......	0
	471	47.2	1.104713	2.520209	0.000000	1.105000	0.000621	13	.......	0
	474	47.5	1.119776	2.568109	0.000000	1.120000	0.000622	13	.......	0
	477	47.8	1.134702	2.634129	0.000000	1.135000	0.000616	13	.......	0
	480	48.1	1.149741	2.582790	0.000000	1.150000	0.000621	13	.......	0
	483	48.4	1.164683	2.645955	0.000000	1.165000	0.000617	13	.......	0
	486	48.7	1.179763	2.637846	0.000000	1.180000	0.000616	13	.......	0
	489	49	1.194688	2.633281	0.000000	1.195000	0.000615	13	.......	0
	492	49.3	1.209692	2.666953	0.000000	1.210000	0.000622	13	.......	0
	495	49.6	1.224696	2.700939	0.000000	1.225000	0.000618	13	.......	0
	498	49.9	1.239737	2.715805	0.000000	1.240000	0.000615	13	.......	0
	501	50.2	1.254664	2.730228	0.000000	1.255000	0.000622	13	.......	0
	504	50.5	1.269722	2.796157	0.000000	1.270000	0.000617	13	.......	0
	507	50.8	1.284723	2.872332	0.000000	1.285000	0.000616	13	.......	0
	510	51.1	1.299772	2.949674	0.000000	1.300000	0.000616	13	.......	0
	513	51.4	1.314687	2.988901	0.000000	1.315000	0.000614	13	.......	0
	516	51.7	1.329669	3.090276	0.000000	1.330000	0.000615	13	.......	0
	519	52	1.344616	3.219924	0.000000	1.345000	0.000616	13	.......	0
	522	52.3	1.339902	-1.693744	0.000000	1.340000	0.000614	13	.......	1
	525	52.6	1.324925	-2.589231	0.000000	1.325000	0.000620	13	.......	1
	528	52.9	1.309949	-2.691870	0.000000	1.310000	0.000614	13	.......	1
	531	53.2	1.295038	-2.724821	0.000000	1.295000	0.000616	13	.......	1
	534	53.5	1.279948	-2.753146	0.000000	1.280000	0.000616	13	.......	1
	537	53.8	1.264976	-2.634365	0.000000	1.265000	0.000615	13	.......	1
	540	54.1	1.249954	-2.622664	0.000000	1.250000	0.000611	13	.......	1
	543	54.4	1.234978	-2.581812	0.000000	1.235000	0.000614	13	.......	1
	546	54.7	1.219933	-2.549520	0.000000	1.220000	0.000618	13	.......	1
	549	55	1.204924	-2.547705	0.000000	1.205000	0.000613	13	.......	1
	552	55.3	1.189967	-2.519165	0.000000	1.190000	0.000613	13	.......	1
	555	55.6	1.174966	-2.501977	0.000000	1.175000	0.000618	13	.......	1
	558	55.9	1.159926	-2.495660	0.000000	1.160000	0.000617	13	.......	1
	561	56.2	1.144981	-2.471542	0.000000	1.145000	0.000624	13	.......	1
	564	56.5	1.129923	-2.497904	0.000000	1.130000	0.000621	13	.......	1
	567	56.8	1.114990	-2.465556	0.000000	1.115000	0.000617	13	.......	1
	570	57.1	1.099971	-2.408575	0.000000	1.100000	0.000618	13	.......	1
	573	57.4	1.084964	-2.369189	0.000000	1.085000	0.000622	13	.......	1
	576	57.7	1.069912	-2.290091	0.000000	1.070000	0.000619	13	.......	1
	579	58	1.054953	-2.274092	0.000000	1.055000	0.000617	13	.......	1
	582	58.3	1.039936	-2.290044	0.000000	1.040000	0.000621	13	.......	1
	585	58.6	1.024956	-2.219467	0.000000	1.025000	0.000620	13	.......	1
	588	58.9	1.009944	-2.196804	0.000000	1.010000	0.000617	13	.......	1
	591	59.2	0.995002	-2.185593	0.000000	0.995000	0.000617	13	.......	1
	594	59.5	0.979953	-2.161533	0.000000	0.980000	0.000619	13	.......	1
	597	59.8	0.964896	-2.142566	0.000000	0.965000	0.000620	13	.......	1
	600	60.1	0.949906	-2.189756	0.000000	0.950000	0.000616	13	.......	1
	603	60.4	0.934946	-2.205459	0.000000	0.935000	0.000617	13	.......	1
	606	60.7	0.919975	-2.217887	0.000000	0.920000	0.000618	13	.......	1
	609	61	0.905013	-2.275466	0.000000	0.905000	0.000619	13	.......	1
	612	61.3	0.890003	-2.302017	0.000000	0.890000	0.000621	13	.......	1
	615	61.6	0.875049	-2.350198	0.000000	0.875000	0.000617	13	.......	1
	618	61.9	0.859969	-2.376687	0.000000	0.860000	0.000613	13	.......	1
	621	62.2	0.844983	-2.456810	0.000000	0.845000	0.000622	13	.......	1
	624	62.5	0.829995	-2.450580	0.000000	0.830000	0.000618	13	.......	1
	627	62.8	0.815039	-2.530175	0.000000	0.815000	0.000616	13	.......	1
	630	63.1	0.799974	-2.577672	0.000000	0.800000	0.000622	13	.......	1
	633	63.4	0.785038	-2.612288	0.000000	0.785000	0.000623	13	.......	1
	636	63.7	0.769980	-2.634470	0.000000	0.770000	0.000617	13	.......	1
	639	64	0.754992	-2.694140	0.000000	0.755000	0.000622	13	.......	1
	642	64.3	0.739984	-2.653867	0.000000	0.740000	0.000622	13	.......	1
	645	64.6	0.724975	-2.627159	0.000000	0.725000	0.000619	13	.......	1
	648	64.9	0.709984	-2.690355	0.000000	0.710000	0.000619	13	.......	1
	651	65.2	0.695035	-2.659667	0.000000	0.695000	0.000622	13	.......	1
	654	65.5	0.679976	-2.703455	0.000000	0.680000	0.000622	13	.......	1
	657	65.8	0.665000	-2.586791	0.000000	0.665000	0.000623	13	.......	1
	660	66.1	0.649969	-2.520656	0.000000	0.650000	0.000623	13	.......	1
	663	66.4	0.635041	-2.461906	0.000000	0.635000	0.000624	13	.......	1
	666	66.7	0.619973	-2.371196	0.000000	0.620000	0.000623	13	.......	1
	669	67	0.604936	-2.313482	0.000000	0.605000	0.000625	13	.......	1
	672	67.3	0.589941	-2.261208	0.000000	0.590000	0.000620	13	.......	1
	675	67.6	0.575031	-2.142427	0.000000	0.575000	0.000622	13	.......	1
	678	67.9	0.559941	-2.117071	0.000000	0.560000	0.000625	13	.......	1
	681	68.2	0.544978	-2.042499	0.000000	0.545000	0.000621	13	.......	1
	684	68.5	0.529936	-1.949756	0.000000	0.530000	0.000618	13	.......	1
	687	68.8	0.514986	-1.889048	0.000000	0.515000	0.000622	13	.......	1
	690	69.1	0.499939	-1.852567	0.000000	0.500000	0.000619	13	.......	1
	693	69.4	0.484997	-1.784033	0.000000	0.485000	0.000621	13	.......	1
	696	69.7	0.470016	-1.765336	0.000000	0.470000	0.000617	13	.......	1
	699	70	0.455039	-1.704043	0.000000	0.455000	0.000623	13	.......	1
	702	70.3	0.439975	-1.698483	0.000000	0.440000	0.000619	13	.......	1
	705	70.6	0.425022	-1.641802	0.000000	0.425000	0.000618	13	.......	1
	708	70.9	0.409950	-1.607067	0.000000	0.410000	0.000620	13	.......	1
	711	71.2	0.395008	-1.557186	0.000000	0.395000	0.000618	13	.......	1
	714	71.5	0.380001	-1.551757	0.000000	0.380000	0.000618	13	.......	1
	717	71.8	0.364984	-1.475191	0.000000	0.365000	0.000622	13	.......	1
	720	72.1	0.349916	-1.423808	0.000000	0.350000	0.000621	13	.......	1
	723	72.4	0.334996	-1.389601	0.000000	0.335000	0.000623	13	.......	1
	726	72.7	0.319966	-1.308793	0.000000	0.320000	0.000622	13	.......	1
	729	73	0.305025	-1.228322	0.000000	0.305000	0.000620	13	.......	1
	732	73.3	0.289986	-1.149192	0.000000	0.290000	0.000622	13	.......	1
	735	73.6	0.275036	-1.041356	0.000000	0.275000	0.000622	13	.......	1
	738	73.9	0.259986	-0.937027	0.000000	0.260000	0.000623	13	.......	1
	741	74.2	0.244897	-0.837646	0.000000	0.245000	0.000619	13	.......	1
	744	74.5	0.229938	-0.731921	0.000000	0.230000	0.000616	13	.......	1
	747	74.8	0.214983	-0.645469	0.000000	0.215000	0.000622	13	.......	1
	750	75.1	0.199952	-0.559790	0.000000	0.200000	0.000621	13	.......	1
	753	75.4	0.184975	-0.482663	0.000000	0.185000	0.000620	13	.......	1
	756	75.7	0.169940	-0.423045	0.000000	0.170000	0.000621	13	.......	1
	759	76	0.154975	-0.375212	0.000000	0.155000	0.000622	13	.......	1
	762	76.3	0.139920	-0.335497	0.000000	0.140000	0.000622	13	.......	1
	765	76.6	0.124920	-0.303551	0.000000	0.125000	0.000622	13	.......	1
	768	76.9	0.109924	-0.277441	0.000000	0.110000	0.000621	13	.......	1
	771	77.2	0.095037	-0.255969	0.000000	0.095000	0.000619	13	.......	1
	774	77.5	0.079972	-0.238511	0.000000	0.080000	0.000624	13	.......	1
	777	77.8	0.065011	-0.224362	0.000000	0.065000	0.000622	13	.......	1
	780	78.1	0.049953	-0.219993	0.000000	0.050000	0.000617	13	.......	1
	783	78.4	0.064991	-0.170631	0.000000	0.065000	0.000624	13	.......	1
	786	78.7	0.079952	-0.152430	0.000000	0.080000	0.000621	13	.......	1
	789	79	0.095013	-0.138410	0.000000	0.095000	0.000620	13	.......	1
	792	79.3	0.109894	-0.126428	0.000000	0.110000	0.000617	13	.......	1
	795	79.6	0.124894	-0.113593	0.000000	0.125000	0.000625	13	.......	1
	798	79.9	0.139891	-0.098970	0.000000	0.140000	0.000621	13	.......	1
	801	80.2	0.154942	-0.080037	0.000000	0.155000	0.000622	13	.......	1
	804	80.5	0.169889	-0.054337	0.000000	0.170000	0.000623	13	.......	1
	807	80.8	0.184930	-0.021157	0.000000	0.185000	0.000620	13	.......	1
	810	81.1	0.199902	0.026653	0.000000	0.200000	0.000619	13	.......	1
	813	81.4	0.214926	0.092109	0.000000	0.215000	0.000621	13	.......	1
	816	81.7	0.229879	0.183941	0.000000	0.230000	0.000619	13	.......	1
	819	82	0.244831	0.309800	0.000000	0.245000	0.000625	13	.......	1
	822	82.3	0.259904	0.481728	0.000000	0.260000	0.000621	13	.......	1
	825	82.6	0.274935	0.715318	0.000000	0.275000	0.000619	13	.......	1
	828	82.9	0.289862	1.000940	0.000000	0.290000	0.000620	13	.......	1
	831	83.2	0.304896	1.293342	0.000000	0.305000	0.000618	13	.......	1
	834	83.5	0.319839	1.499529	0.000000	0.320000	0.000619	13	.......	1
	837	83.8	0.334802	1.550558	0.000000	0.335000	0.000615	13	.......	1
	840	84.1	0.349816	1.542947	0.000000	0.350000	0.000617	13	.......	1
	843	84.4	0.364837	1.565355	0.000000	0.365000	0.000621	13	.......	1
	846	84.7	0.379857	1.581300	0.000000	0.380000	0.000616	13	.......	1
	849	85	0.394831	1.602782	0.000000	0.395000	0.000616	13	.......	1
	852	85.3	0.409797	1.664255	0.000000	0.410000	0.000619	13	.......	1
	855	85.6	0.424881	1.685844	0.000000	0.425000	0.000623	13	.......	1
	858	85.9	0.439830	1.721158	0.000000	0.440000	0.000621	13	.......	1
	861	86.2	0.454834	1.764464	0.000000	0.455000	0.000621	13	.......	1
	864	86.5	0.469847	1.795495	0.000000	0.470000	0.000618	13	.......	1
	867	86.8	0.484839	1.834589	0.000000	0.485000	0.000624	13	.......	1
	870	87.1	0.499812	1.884990	0.000000	0.500000	0.000622	13	.......	1
	873	87.4	0.514759	1.934481	0.000000	0.515000	0.000620	13	.......	1
	876	87.7	0.529739	2.003010	0.000000	0.530000	0.000623	13	.......	1
	879	88	0.544753	2.066240	0.000000	0.545000	0.000623	13	.......	1
	882	88.3	0.559787	2.150915	0.000000	0.560000	0.000624	13	.......	1
	885	88.6	0.574800	2.257810	0.000000	0.575000	0.000620	13	.......	1
	888	88.9	0.589766	2.297119	0.000000	0.590000	0.000621	13	.......	1
	891	89.2	0.604729	2.351765	0.000000	0.605000	0.000624	13	.......	1
	894	89.5	0.619783	2.458699	0.000000	0.620000	0.000622	13	.......	1
	897	89.8	0.634739	2.554531	0.000000	0.635000	0.000621	13	.......	1
	900	90.1	0.649725	2.641347	0.000000	0.650000	0.000624	13	.......	1
	903	90.4	0.664732	2.665455	0.000000	0.665000	0.000621	13	.......	1
	906	90.7	0.679790	2.759892	0.000000	0.680000	0.000621	13	.......	1
	909	91	0.694740	2.795361	0.000000	0.695000	0.000620	13	.......	1
	912	91.3	0.709777	2.784400	0.000000	0.710000	0.000616	13	.......	1
	915	91.6	0.724729	2.796684	0.000000	0.725000	0.000619	13	.......	1
	918	91.9	0.739778	2.825068	0.000000	0.740000	0.000622	13	.......	1
	921	92.2	0.754712	2.814820	0.000000	0.755000	0.000619	13	.......	1
	924	92.5	0.769722	2.809120	0.000000	0.770000	0.000620	13	.......	1
	927	92.8	0.784744	2.833333	0.000000	0.785000	0.000623	13	.......	1
	930	93.1	0.799758	2.830753	0.000000	0.800000	0.000623	13	.......	1
	933	93.4	0.814728	2.740649	0.000000	0.815000	0.000618	13	.......	1
	936	93.7	0.829777	2.738137	0.000000	0.830000	0.000621	13	.......	1
	939	94	0.844756	2.660017	0.000000	0.845000	0.000623	13	.......	1
	942	94.3	0.859785	2.594378	0.000000	0.860000	0.000619	13	.......	1
	945	94.6	0.874780	2.583266	0.000000	0.875000	0.000618	13	.......	1
	948	94.9	0.889749	2.563200	0.000000	0.890000	0.000625	13	.......	1
	951	95.2	0.904772	2.437593	0.000000	0.905000	0.000623	13	.......	1
	954	95.5	0.919796	2.427249	0.000000	0.920000	0.000623	13	.......	1
	957	95.8	0.934665	2.348101	0.000000	0.935000	0.000621	13	.......	1
	960	96.1	0.949732	2.369545	0.000000	0.950000	0.000624	13	.......	1
	963	96.4	0.964686	2.333837	0.000000	0.965000	0.000620	13	.......	1
	966	96.7	0.979777	2.373655	0.000000	0.980000	0.000624	13	.......	1
	969	97	0.994730	2.309880	0.000000	0.995000	0.000618	13	.......	1
	972	97.3	1.009736	2.308474	0.000000	1.010000	0.000621	13	.......	1
	975	97.6	1.024702	2.343166	0.000000	1.025000	0.000621	13	.......	1
	978	97.9	1.039768	2.405782	0.000000	1.040000	0.000621	13	.......	1
	981	98.2	1.054698	2.412819	0.000000	1.055000	0.000617	13	.......	1
	984	98.5	1.069738	2.459598	0.000000	1.070000	0.000620	13	.......	1
	987	98.8	1.084744	2.487199	0.000000	1.085000	0.000622	13	.......	1
	990	99.1	1.099790	2.552654	0.000000	1.100000	0.000621	13	.......	1
	993	99.4	1.114684	2.549811	0.000000	1.115000	0.000616	13	.......	1
	996	99.7	1.129691	2.577482	0.000000	1.130000	0.000623	13	.......	1
	999	100	1.144708	2.589699	0.000000	1.145000	0.000620	13	.......	1
	1002	100.3	1.159716	2.663150	0.000000	1.160000	0.000623	13	.......	1
	1005	100.6	1.174670	2.599457	0.000000	1.175000	0.000623	13	.......	1
	1008	100.9	1.189769	2.653325	0.000000	1.190000	0.000617	13	.......	1
	1011	101.2	1.204678	2.617572	0.000000	1.205000	0.000619	13	.......	1
	1014	101.5	1.219752	2.685609	0.000000	1.220000	0.000618	13	.......	1
	1017	101.8	1.234689	2.700466	0.000000	1.235000	0.000615	13	.......	1
	1020	102.1	1.249695	2.723205	0.000000	1.250000	0.000620	13	.......	1
	1023	102.4	1.264697	2.789666	0.000000	1.265000	0.000622	13	.......	1
	1026	102.7	1.279734	2.758641	0.000000	1.280000	0.000621	13	.......	1
	1029	103	1.294688	2.880491	0.000000	1.295000	0.000615	13	.......	1
	1032	103.3	1.309741	2.931117	0.000000	1.310000	0.000623	13	.......	1
	1035	103.6	1.324668	3.032208	0.000000	1.325000	0.000623	13	.......	1
	1038	103.9	1.339672	3.137889	0.000000	1.340000	0.000619	13	.......	1
	1041	104.2	1.344794	-0.518114	0.000000	1.345000	0.000618	13	.......	2
	1044	104.5	1.329936	-2.433229	0.000000	1.330000	0.000616	13	.......	2
	1047	104.8	1.314978	-2.643804	0.000000	1.315000	0.000620	13	.......	2
	1050	105.1	1.299983	-2.727396	0.000000	1.300000	0.000624	13	.......	2
	1053	105.4	1.284979	-2.672995	0.000000	1.285000	0.000619	13	.......	2
	1056	105.7	1.269910	-2.682170	0.000000	1.270000	0.000616	13	.......	2
	1059	106	1.254974	-2.637903	0.000000	1.255000	0.000623	13	.......	2
	1062	106.3	1.239961	-2.588579	0.000000	1.240000	0.000619	13	.......	2
	1065	106.6	1.224985	-2.536779	0.000000	1.225000	0.000618	13	.......	2
	1068	106.9	1.209941	-2.553761	0.000000	1.210000	0.000620	13	.......	2
	1071	107.2	1.195014	-2.510103	0.000000	1.195000	0.000620	13	.......	2
	1074	107.5	1.179958	-2.469256	0.000000	1.180000	0.000622	13	.......	2
	1077	107.8	1.164923	-2.446429	0.000000	1.165000	0.000620	13	.......	2
	1080	108.1	1.149917	-2.394160	0.000000	1.150000	0.000619	13	.......	2
	1083	108.4	1.134964	-2.454429	0.000000	1.135000	0.000620	13	.......	2
	1086	108.7	1.119953	-2.422054	0.000000	1.120000	0.000623	13	.......	2
	1089	109	1.104978	-2.389444	0.000000	1.105000	0.000625	13	.......	2
	1092	109.3	1.089913	-2.343201	0.000000	1.090000	0.000618	13	.......	2
	1095	109.6	1.074948	-2.316154	0.000000	1.075000	0.000620	13	.......	2
	1098	109.9	1.059929	-2.290501	0.000000	1.060000	0.000621	13	.......	2
	1101	110.2	1.044934	-2.287163	0.000000	1.045000	0.000619	13	.......	2
	1104	110.5	1.029924	-2.269675	0.000000	1.030000	0.000617	13	.......	2
	1107	110.8	1.014992	-2.258523	0.000000	1.015000	0.000621	13	.......	2
	1110	111.1	0.999925	-2.222684	0.000000	1.000000	0.000621	13	.......	2
	1113	111.4	0.985000	-2.237950	0.000000	0.985000	0.000616	13	.......	2
	1116	111.7	0.969904	-2.189067	0.000000	0.970000	0.000619	13	.......	2
	1119	112	0.954938	-2.172896	0.000000	0.955000	0.000618	13	.......	2
	1122	112.3	0.939951	-2.262575	0.000000	0.940000	0.000619	13	.......	2
	1125	112.6	0.924925	-2.206618	0.000000	0.925000	0.000625	13	.......	2
	1128	112.9	0.909925	-2.309053	0.000000	0.910000	0.000616	13	.......	2
	1131	113.2	0.895072	-2.282699	0.000000	0.895000	0.000621	13	.......	2
	1134	113.5	0.880015	-2.307972	0.000000	0.880000	0.000619	13	.......	2
	1137	113.8	0.865008	-2.390428	0.000000	0.865000	0.000622	13	.......	2
	1140	114.1	0.849976	-2.453862	0.000000	0.850000	0.000622	13	.......	2
	1143	114.4	0.835056	-2.445678	0.000000	0.835000	0.000620	13	.......	2
	1146	114.7	0.819969	-2.504132	0.000000	0.820000	0.000625	13	.......	2
	1149	115	0.804989	-2.494260	0.000000	0.805000	0.000619	13	.......	2
	1152	115.3	0.789968	-2.519075	0.000000	0.790000	0.000616	13	.......	2
	1155	115.6	0.775038	-2.540781	0.000000	0.775000	0.000620	13	.......	2
	1158	115.9	0.759939	-2.535231	0.000000	0.760000	0.000616	13	.......	2
	1161	116.2	0.744990	-2.615375	0.000000	0.745000	0.000620	13	.......	2
	1164	116.5	0.729921	-2.594620	0.000000	0.730000	0.000617	13	.......	2
	1167	116.8	0.715060	-2.612234	0.000000	0.715000	0.000621	13	.......	2
	1170	117.1	0.700024	-2.626424	0.000000	0.700000	0.000620	13	.......	2
	1173	117.4	0.684973	-2.591168	0.000000	0.685000	0.000621	13	.......	2
	1176	117.7	0.669995	-2.557291	0.000000	0.670000	0.000616	13	.......	2
	1179	118	0.655017	-2.533241	0.000000	0.655000	0.000617	13	.......	2
	1182	118.3	0.639985	-2.477279	0.000000	0.640000	0.000622	13	.......	2
	1185	118.6	0.625009	-2.467383	0.000000	0.625000	0.000621	13	.......	2
	1188	118.9	0.609974	-2.373368	0.000000	0.610000	0.000618	13	.......	2
	1191	119.2	0.595004	-2.320809	0.000000	0.595000	0.000618	13	.......	2
	1194	119.5	0.579992	-2.271022	0.000000	0.580000	0.000623	13	.......	2
	1197	119.8	0.564969	-2.166297	0.000000	0.565000	0.000617	13	.......	2
	1200	120.1	0.549956	-2.084263	0.000000	0.550000	0.000618	13	.......	2
	1203	120.4	0.535029	-2.038838	0.000000	0.535000	0.000619	13	.......	2
	1206	120.7	0.519962	-1.949615	0.000000	0.520000	0.000616	13	.......	2
	1209	121	0.505023	-1.888928	0.000000	0.505000	0.000619	13	.......	2
	1212	121.3	0.489999	-1.757456	0.000000	0.490000	0.000618	13	.......	2
	1215	121.6	0.475064	-1.682468	0.000000	0.475000	0.000618	13	.......	2
	1218	121.9	0.459985	-1.634144	0.000000	0.460000	0.000616	13	.......	2
	1221	122.2	0.444971	-1.631913	0.000000	0.445000	0.000624	13	.......	2
	1224	122.5	0.429970	-1.573139	0.000000	0.430000	0.000615	13	.......	2
	1227	122.8	0.415024	-1.536277	0.000000	0.415000	0.000618	13	.......	2
	1230	123.1	0.399945	-1.522109	0.000000	0.400000	0.000621	13	.......	2
	1233	123.4	0.384989	-1.466638	0.000000	0.385000	0.000617	13	.......	2
	1236	123.7	0.369997	-1.430172	0.000000	0.370000	0.000617	13	.......	2
	1239	124	0.354984	-1.399118	0.000000	0.355000	0.000622	13	.......	2
	1242	124.3	0.339933	-1.331838	0.000000	0.340000	0.000621	13	.......	2
	1245	124.6	0.324930	-1.294958	0.000000	0.325000	0.000622	13	.......	2
	1248	124.9	0.309924	-1.202347	0.000000	0.310000	0.000619	13	.......	2
	1251	125.2	0.295029	-1.134028	0.000000	0.295000	0.000621	13	.......	2
	1254	125.5	0.279992	-1.058348	0.000000	0.280000	0.000623	13	.......	2
	1257	125.8	0.265015	-0.947653	0.000000	0.265000	0.000620	13	.......	2
	1260	126.1	0.249917	-0.860778	0.000000	0.250000	0.000621	13	.......	2
	1263	126.4	0.234968	-0.786232	0.000000	0.235000	0.000618	13	.......	2
	1266	126.7	0.219966	-0.695456	0.000000	0.220000	0.000618	13	.......	2
	1269	127	0.204933	-0.614991	0.000000	0.205000	0.000626	13	.......	2
	1272	127.3	0.189949	-0.541930	0.000000	0.190000	0.000616	13	.......	2
	1275	127.6	0.175040	-0.480181	0.000000	0.175000	0.000619	13	.......	2
	1278	127.9	0.159958	-0.427607	0.000000	0.160000	0.000620	13	.......	2
	1281	128.2	0.144957	-0.383695	0.000000	0.145000	0.000624	13	.......	2
	1284	128.5	0.129901	-0.348486	0.000000	0.130000	0.000615	13	.......	2
	1287	128.8	0.114959	-0.321178	0.000000	0.115000	0.000621	13	.......	2
	1290	129.1	0.099965	-0.296946	0.000000	0.100000	0.000624	13	.......	2
	1293	129.4	0.084980	-0.275179	0.000000	0.085000	0.000618	13	.......	2
	1296	129.7	0.069967	-0.257106	0.000000	0.070000	0.000619	13	.......	2
	1299	130	0.055046	-0.240105	0.000000	0.055000	0.000620	13	.......	2
	1302	130.3	0.059982	-0.185113	0.000000	0.060000	0.000618	13	.......	2
	1305	130.6	0.075030	-0.158936	0.000000	0.075000	0.000614	13	.......	2
	1308	130.9	0.089895	-0.139993	0.000000	0.090000	0.000619	13	.......	2
	1311	131.2	0.104936	-0.124966	0.000000	0.105000	0.000617	13	.......	2
	1314	131.5	0.119903	-0.110507	0.000000	0.120000	0.000619	13	.......	2
	1317	131.8	0.134909	-0.095260	0.000000	0.135000	0.000620	13	.......	2
	1320	132.1	0.149862	-0.077867	0.000000	0.150000	0.000613	13	.......	2
	1323	132.4	0.164927	-0.055089	0.000000	0.165000	0.000620	13	.......	2
	1326	132.7	0.179891	-0.025867	0.000000	0.180000	0.000619	13	.......	2
	1329	133	0.194915	0.015128	0.000000	0.195000	0.000617	13	.......	2
	1332	133.3	0.209890	0.069927	0.000000	0.210000	0.000616	13	.......	2
	1335	133.6	0.224938	0.146093	0.000000	0.225000	0.000625	13	.......	2
	1338	133.9	0.239878	0.256938	0.000000	0.240000	0.000622	13	.......	2
	1341	134.2	0.254909	0.410135	0.000000	0.255000	0.000619	13	.......	2
	1344	134.5	0.269855	0.617702	0.000000	0.270000	0.000617	13	.......	2
	1347	134.8	0.284852	0.877514	0.000000	0.285000	0.000623	13	.......	2
	1350	135.1	0.299874	1.194203	0.000000	0.300000	0.000620	13	.......	2
	1353	135.4	0.314829	1.440116	0.000000	0.315000	0.000617	13	.......	2
	1356	135.7	0.329799	1.531292	0.000000	0.330000	0.000622	13	.......	2
	1359	136	0.344812	1.539413	0.000000	0.345000	0.000618	13	.......	2
	1362	136.3	0.359834	1.543993	0.000000	0.360000	0.000621	13	.......	2
	1365	136.6	0.374869	1.558758	0.000000	0.375000	0.000623	13	.......	2
	1368	136.9	0.389827	1.569090	0.000000	0.390000	0.000617	13	.......	2
	1371	137.2	0.404815	1.616052	0.000000	0.405000	0.000620	13	.......	2
	1374	137.5	0.419840	1.644183	0.000000	0.420000	0.000623	13	.......	2
	1377	137.8	0.434840	1.674650	0.000000	0.435000	0.000620	13	.......	2
	1380	138.1	0.449743	1.728565	0.000000	0.450000	0.000617	13	.......	2
	1383	138.4	0.464864	1.741957	0.000000	0.465000	0.000623	13	.......	2
	1386	138.7	0.479849	1.815342	0.000000	0.480000	0.000623	13	.......	2
	1389	139	0.494845	1.859882	0.000000	0.495000	0.000618	13	.......	2
	1392	139.3	0.509813	1.880009	0.000000	0.510000	0.000618	13	.......	2
	1395	139.6	0.524772	1.970603	0.000000	0.525000	0.000624	13	.......	2
	1398	139.9	0.539791	2.044027	0.000000	0.540000	0.000618	13	.......	2
	1401	140.2	0.554707	2.105838	0.000000	0.555000	0.000618	13	.......	2
	1404	140.5	0.569784	2.168264	0.000000	0.570000	0.000623	13	.......	2
	1407	140.8	0.584809	2.240268	0.000000	0.585000	0.000623	13	.......	2
	1410	141.1	0.599792	2.346233	0.000000	0.600000	0.000624	13	.......	2
	1413	141.4	0.614727	2.418850	0.000000	0.615000	0.000622	13	.......	2
	1416	141.7	0.629763	2.490927	0.000000	0.630000	0.000623	13	.......	2
	1419	142	0.644723	2.589443	0.000000	0.645000	0.000625	13	.......	2
	1422	142.3	0.659778	2.638605	0.000000	0.660000	0.000626	13	.......	2
	1425	142.6	0.674765	2.695676	0.000000	0.675000	0.000623	13	.......	2
	1428	142.9	0.689734	2.799918	0.000000	0.690000	0.000622	13	.......	2
	1431	143.2	0.704704	2.800725	0.000000	0.705000	0.000623	13	.......	2
	1434	143.5	0.719753	2.826071	0.000000	0.720000	0.000626	13	.......	2
	1437	143.8	0.734711	2.852599	0.000000	0.735000	0.000624	13	.......	2
	1440	144.1	0.749734	2.855502	0.000000	0.750000	0.000625	13	.......	2
	1443	144.4	0.764695	2.813623	0.000000	0.765000	0.000621	13	.......	2
	1446	144.7	0.779777	2.849891	0.000000	0.780000	0.000621	13	.......	2
	1449	145	0.794689	2.804428	0.000000	0.795000	0.000624	13	.......	2
	1452	145.3	0.809675	2.757756	0.000000	0.810000	0.000624	13	.......	2
	1455	145.6	0.824749	2.729641	0.000000	0.825000	0.000621	13	.......	2
	1458	145.9	0.839809	2.707450	0.000000	0.840000	0.000617	13	.......	2
	1461	146.2	0.854750	2.650627	0.000000	0.855000	0.000622	13	.......	2
	1464	146.5	0.869760	2.567274	0.000000	0.870000	0.000616	13	.......	2
	1467	146.8	0.884747	2.524607	0.000000	0.885000	0.000618	13	.......	2
	1470	147.1	0.899799	2.509548	0.000000	0.900000	0.000619	13	.......	2
	1473	147.4	0.914731	2.409176	0.000000	0.915000	0.000618	13	.......	2
	1476	147.7	0.929724	2.382595	0.000000	0.930000	0.000617	13	.......	2
	1479	148	0.944731	2.398685	0.000000	0.945000	0.000623	13	.......	2
	1482	148.3	0.959740	2.295447	0.000000	0.960000	0.000620	13	.......	2
	1485	148.6	0.974741	2.306102	0.000000	0.975000	0.000616	13	.......	2
	1488	148.9	0.989772	2.315842	0.000000	0.990000	0.000622	13	.......	2
	1491	149.2	1.004726	2.303454	0.000000	1.005000	0.000620	13	.......	2
	1494	149.5	1.019783	2.337535	0.000000	1.020000	0.000620	13	.......	2
	1497	149.8	1.034713	2.381890	0.000000	1.035000	0.000618	13	.......	2
	1500	150.1	1.049703	2.401862	0.000000	1.050000	0.000627	13	.......	2
	1503	150.4	1.064689	2.425851	0.000000	1.065000	0.000621	13	.......	2
	1506	150.7	1.079776	2.471401	0.000000	1.080000	0.000619	13	.......	2
	1509	151	1.094737	2.497886	0.000000	1.095000	0.000622	13	.......	2
	1512	151.3	1.109775	2.559694	0.000000	1.110000	0.000617	13	.......	2
	1515	151.6	1.124736	2.600812	0.000000	1.125000	0.000619	13	.......	2
	1518	151.9	1.139729	2.606779	0.000000	1.140000	0.000621	13	.......	2
	1521	152.2	1.154655	2.609318	0.000000	1.155000	0.000616	13	.......	2
	1524	152.5	1.169649	2.621418	0.000000	1.170000	0.000618	13	.......	2
	1527	152.8	1.184721	2.624003	0.000000	1.185000	0.000622	13	.......	2
	1530	153.1	1.199768	2.600775	0.000000	1.200000	0.000619	13	.......	2
	1533	153.4	1.214713	2.660093	0.000000	1.215000	0.000619	13	.......	2
	1536	153.7	1.229730	2.679759	0.000000	1.230000	0.000622	13	.......	2
	1539	154	1.244695	2.699693	0.000000	1.245000	0.000623	13	.......	2
	1542	154.3	1.259728	2.752545	0.000000	1.260000	0.000623	13	.......	2
	1545	154.6	1.274659	2.774104	0.000000	1.275000	0.000621	13	.......	2
	1548	154.9	1.289724	2.893897	0.000000	1.290000	0.000623	13	.......	2
	1551	155.2	1.304733	2.909076	0.000000	1.305000	0.000621	13	.......	2
	1554	155.5	1.319712	2.929190	0.000000	1.320000	0.000621	13	.......	2
	1557	155.8	1.334630	3.122826	0.000000	1.335000	0.000620	13	.......	2
	1559	156	1.344615	3.148139	0.000000	1.345000	0.000622	13	.......	2